fit_time[ns] Functional_fit[mV] Thermal_fit[mV]
3.600000 20.862903 21.284209
3.650000 20.599463 20.845306
3.700000 20.348961 20.415317
3.750000 20.106797 19.994052
3.800000 19.868433 19.581323
3.850000 19.629498 19.176949
3.900000 19.385890 18.780752
3.950000 19.133867 18.392557
4.000000 18.870130 18.012195
4.050000 18.591894 17.639499
4.100000 18.296947 17.274308
4.150000 17.983690 16.916461
4.200000 17.651171 16.565806
4.250000 17.299091 16.222189
4.300000 16.927803 15.885463
4.350000 16.538296 15.555483
4.400000 16.132152 15.232107
4.450000 15.711507 14.915197
4.500000 15.278979 14.604618
4.550000 14.837608 14.300238
4.600000 14.390762 14.001926
4.650000 13.942056 13.709558
4.700000 13.495255 13.423008
4.750000 13.054181 13.142156
4.800000 12.622611 12.866884
4.850000 12.204188 12.597076
4.900000 11.802326 12.332620
4.950000 11.420133 12.073403
5.000000 11.060331 11.819319
5.050000 10.725193 11.570262
5.100000 10.416489 11.326127
5.150000 10.135451 11.086814
5.200000 9.882738 10.852224
5.250000 9.658432 10.622259
5.300000 9.462036 10.396825
5.350000 9.292489 10.175829
5.400000 9.148202 9.959181
5.450000 9.027090 9.746791
5.500000 8.926638 9.538572
5.550000 8.843955 9.334441
5.600000 8.775852 9.134312
5.650000 8.718919 8.938106
5.700000 8.669607 8.745742
5.750000 8.624318 8.557143
5.800000 8.579487 8.372231
5.850000 8.531668 8.190933
5.900000 8.477615 8.013175
5.950000 8.414357 7.838886
6.000000 8.339265 7.667995
6.050000 8.250109 7.500435
6.100000 8.145110 7.336137
6.150000 8.022972 7.175037
6.200000 7.882910 7.017070
6.250000 7.724660 6.862173
6.300000 7.548479 6.710285
6.350000 7.355131 6.561344
6.400000 7.145860 6.415293
6.450000 6.922357 6.272073
6.500000 6.686706 6.131627
6.550000 6.441334 5.993901
6.600000 6.188945 5.858839
6.650000 5.932445 5.726390
6.700000 5.674876 5.596499
6.750000 5.419331 5.469118
6.800000 5.168883 5.344195
6.850000 4.926507 5.221682
6.900000 4.695008 5.101532
6.950000 4.476952 4.983696
7.000000 4.274606 4.868130
7.050000 4.089886 4.754788
7.100000 3.924313 4.643626
7.150000 3.778978 4.534601
7.200000 3.654520 4.427671
7.250000 3.551115 4.322795
7.300000 3.468475 4.219932
7.350000 3.405860 4.119042
7.400000 3.362098 4.020086
7.450000 3.335621 3.923027
7.500000 3.324504 3.827826
7.550000 3.326513 3.734448
7.600000 3.339168 3.642857
7.650000 3.359800 3.553017
7.700000 3.385618 3.464894
7.750000 3.413778 3.378455
7.800000 3.441452 3.293666
7.850000 3.465898 3.210495
7.900000 3.484520 3.128911
7.950000 3.494932 3.048883
8.000000 3.495013 2.970379
8.050000 3.482955 2.893371
8.100000 3.457299 2.817830
8.150000 3.416973 2.743725
8.200000 3.361305 2.671030
8.250000 3.290041 2.599718
8.300000 3.203342 2.529760
8.350000 3.101776 2.461132
8.400000 2.986299 2.393806
8.450000 2.858225 2.327758
8.500000 2.719194 2.262963
8.550000 2.571121 2.199396
8.600000 2.416154 2.137035
8.650000 2.256611 2.075854
8.700000 2.094927 2.015832
8.750000 1.933587 1.956947
8.800000 1.775070 1.899175
8.850000 1.621787 1.842496
8.900000 1.476019 1.786889
8.950000 1.339868 1.732332
9.000000 1.215201 1.678805
9.050000 1.103612 1.626290
9.100000 1.006385 1.574765
9.150000 0.924464 1.524213
9.200000 0.858431 1.474614
9.250000 0.808503 1.425949
9.300000 0.774524 1.378202
9.350000 0.755972 1.331354
9.400000 0.751982 1.285388
9.450000 0.761362 1.240288
9.500000 0.782633 1.196035
9.550000 0.814060 1.152615
9.600000 0.853704 1.110012
9.650000 0.899466 1.068209
9.700000 0.949142 1.027191
9.750000 1.000476 0.986943
9.800000 1.051217 0.947451
9.850000 1.099169 0.908700
9.900000 1.142251 0.870676
9.950000 1.178536 0.833365
10.000000 1.206307 0.796754
10.050000 1.224085 0.760828
10.100000 1.230670 0.725575
10.150000 1.225166 0.690983
10.200000 1.206992 0.657038
10.250000 1.175902 0.623728
10.300000 1.131981 0.591041
10.350000 1.075640 0.558965
10.400000 1.007603 0.527489
10.450000 0.928883 0.496601
10.500000 0.840760 0.466291
10.550000 0.744740 0.436546
10.600000 0.642517 0.407356
10.650000 0.535933 0.378711
10.700000 0.426927 0.350601
10.750000 0.317491 0.323015
10.800000 0.209615 0.295943
10.850000 0.105243 0.269376
10.900000 0.006225 0.243303
10.950000 -0.085728 0.217717
11.000000 -0.169086 0.192606
11.050000 -0.242531 0.167964
11.100000 -0.304989 0.143780
11.150000 -0.355657 0.120045
11.200000 -0.394013 0.096752
11.250000 -0.419833 0.073892
11.300000 -0.433186 0.051458
11.350000 -0.434436 0.029439
11.400000 -0.424227 0.007830
11.450000 -0.403463 -0.013377
11.500000 -0.373284 -0.034192
11.550000 -0.335041 -0.054619
11.600000 -0.290251 -0.074668
11.650000 -0.240569 -0.094345
11.700000 -0.187738 -0.113657
11.750000 -0.133551 -0.132611
11.800000 -0.079805 -0.151214
11.850000 -0.028256 -0.169472
11.900000 0.019418 -0.187392
11.950000 0.061664 -0.204980
12.000000 0.097083 -0.222242
12.050000 0.124469 -0.239185
12.100000 0.142830 -0.255815
12.150000 0.151413 -0.272137
12.200000 0.149719 -0.288157
12.250000 0.137512 -0.303881
12.300000 0.114821 -0.319314
12.350000 0.081937 -0.334462
12.400000 0.039403 -0.349331
12.450000 -0.012003 -0.363924
12.500000 -0.071288 -0.378249
12.550000 -0.137274 -0.392308
12.600000 -0.208625 -0.406109
12.650000 -0.283883 -0.419655
12.700000 -0.361506 -0.432951
12.750000 -0.439905 -0.446001
12.800000 -0.517484 -0.458811
12.850000 -0.592678 -0.471386
12.900000 -0.663993 -0.483728
12.950000 -0.730039 -0.495843
13.000000 -0.789566 -0.507735
13.050000 -0.841488 -0.519408
13.100000 -0.884914 -0.530866
13.150000 -0.919161 -0.542113
13.200000 -0.943775 -0.553153
13.250000 -0.958535 -0.563990
13.300000 -0.963455 -0.574628
13.350000 -0.958787 -0.585070
13.400000 -0.945005 -0.595321
13.450000 -0.922799 -0.605383
13.500000 -0.893046 -0.615260
13.550000 -0.856798 -0.624955
13.600000 -0.815244 -0.634473
13.650000 -0.769689 -0.643816
13.700000 -0.721511 -0.652987
13.750000 -0.672138 -0.661990
13.800000 -0.623003 -0.670828
13.850000 -0.575514 -0.679503
13.900000 -0.531022 -0.688020
13.950000 -0.490782 -0.696380
14.000000 -0.455930 -0.704587
14.050000 -0.427456 -0.712644
14.100000 -0.406177 -0.720553
14.150000 -0.392724 -0.728317
14.200000 -0.387528 -0.735939
14.250000 -0.390809 -0.743421
14.300000 -0.402575 -0.750767
14.350000 -0.422627 -0.757977
14.400000 -0.450559 -0.765056
14.450000 -0.485779 -0.772006
14.500000 -0.527518 -0.778828
14.550000 -0.574856 -0.785525
14.600000 -0.626742 -0.792100
14.650000 -0.682025 -0.798555
14.700000 -0.739481 -0.804892
14.750000 -0.797842 -0.811113
14.800000 -0.855831 -0.817220
14.850000 -0.912192 -0.823216
14.900000 -0.965718 -0.829102
14.950000 -1.015283 -0.834881
15.000000 -1.059868 -0.840554
15.050000 -1.098581 -0.846124
15.100000 -1.130683 -0.851592
15.150000 -1.155601 -0.856960
15.200000 -1.172940 -0.862230
15.250000 -1.182492 -0.867404
15.300000 -1.184236 -0.872484
15.350000 -1.178343 -0.877471
15.400000 -1.165163 -0.882368
15.450000 -1.145217 -0.887175
15.500000 -1.119183 -0.891894
15.550000 -1.087878 -0.896527
15.600000 -1.052234 -0.901077
15.650000 -1.013279 -0.905543
15.700000 -0.972106 -0.909928
15.750000 -0.929849 -0.914233
15.800000 -0.887652 -0.918459
15.850000 -0.846644 -0.922609
15.900000 -0.807912 -0.926683
15.950000 -0.772471 -0.930683
16.000000 -0.741245 -0.934611
16.050000 -0.715041 -0.938467
16.100000 -0.694537 -0.942252
16.150000 -0.680259 -0.945969
16.200000 -0.672576 -0.949619
16.250000 -0.671691 -0.953202
16.300000 -0.677638 -0.956720
16.350000 -0.690282 -0.960174
16.400000 -0.709324 -0.963565
16.450000 -0.734314 -0.966895
16.500000 -0.764659 -0.970164
16.550000 -0.799642 -0.973374
16.600000 -0.838437 -0.976526
16.650000 -0.880137 -0.979620
16.700000 -0.923770 -0.982658
16.750000 -0.968328 -0.985642
16.800000 -1.012790 -0.988571
16.850000 -1.056147 -0.991447
16.900000 -1.097428 -0.994270
16.950000 -1.135720 -0.997043
17.000000 -1.170193 -0.999765
17.050000 -1.200118 -1.002438
17.100000 -1.224883 -1.005063
17.150000 -1.244008 -1.007640
17.200000 -1.257153 -1.010170
17.250000 -1.264126 -1.012654
17.300000 -1.264889 -1.015094
17.350000 -1.259551 -1.017489
17.400000 -1.248368 -1.019841
17.450000 -1.231735 -1.022150
17.500000 -1.210174 -1.024418
17.550000 -1.184319 -1.026644
17.600000 -1.154903 -1.028830
17.650000 -1.122732 -1.030977
17.700000 -1.088673 -1.033085
17.750000 -1.053627 -1.035154
17.800000 -1.018508 -1.037187
17.850000 -0.984220 -1.039182
17.900000 -0.951637 -1.041142
17.950000 -0.921580 -1.043066
18.000000 -0.894800 -1.044955
18.050000 -0.871956 -1.046810
18.100000 -0.853607 -1.048631
18.150000 -0.840193 -1.050420
18.200000 -0.832029 -1.052176
18.250000 -0.829298 -1.053901
18.300000 -0.832049 -1.055595
18.350000 -0.840193 -1.057257
18.400000 -0.853515 -1.058890
18.450000 -0.871673 -1.060494
18.500000 -0.894209 -1.062068
18.550000 -0.920566 -1.063614
18.600000 -0.950098 -1.065132
18.650000 -0.982089 -1.066623
18.700000 -1.015768 -1.068087
18.750000 -1.050335 -1.069525
18.800000 -1.084974 -1.070936
18.850000 -1.118875 -1.072322
18.900000 -1.151258 -1.073683
18.950000 -1.181383 -1.075020
19.000000 -1.208577 -1.076332
19.050000 -1.232242 -1.077621
19.100000 -1.251874 -1.078887
19.150000 -1.267072 -1.080130
19.200000 -1.277545 -1.081350
19.250000 -1.283121 -1.082549
19.300000 -1.283749 -1.083726
19.350000 -1.279497 -1.084881
19.400000 -1.270551 -1.086016
19.450000 -1.257208 -1.087131
19.500000 -1.239870 -1.088225
19.550000 -1.219029 -1.089300
19.600000 -1.195258 -1.090355
19.650000 -1.169194 -1.091391
19.700000 -1.141520 -1.092409
19.750000 -1.112953 -1.093408
19.800000 -1.084222 -1.094390
19.850000 -1.056051 -1.095354
19.900000 -1.029144 -1.096300
19.950000 -1.004163 -1.097229
20.000000 -0.981718 -1.098142
20.050000 -0.962348 -1.099039
20.100000 -0.946512 -1.099919
20.150000 -0.934578 -1.100783
20.200000 -0.926813 -1.101632
20.250000 -0.923381 -1.102466
20.300000 -0.924337 -1.103284
20.350000 -0.929629 -1.104088
20.400000 -0.939099 -1.104878
20.450000 -0.952491 -1.105653
20.500000 -0.969453 -1.106414
20.550000 -0.989552 -1.107162
20.600000 -1.012283 -1.107896
20.650000 -1.037081 -1.108617
20.700000 -1.063338 -1.109326
20.750000 -1.090416 -1.110021
20.800000 -1.117664 -1.110704
20.850000 -1.144435 -1.111375
20.900000 -1.170099 -1.112034
20.950000 -1.194061 -1.112680
21.000000 -1.215771 -1.113316
21.050000 -1.234744 -1.113940
21.100000 -1.250563 -1.114552
21.150000 -1.262894 -1.115154
21.200000 -1.271490 -1.115745
21.250000 -1.276198 -1.116325
21.300000 -1.276962 -1.116895
21.350000 -1.273820 -1.117455
21.400000 -1.266907 -1.118005
21.450000 -1.256445 -1.118545
21.500000 -1.242742 -1.119075
21.550000 -1.226180 -1.119595
21.600000 -1.207207 -1.120107
21.650000 -1.186324 -1.120609
21.700000 -1.164071 -1.121102
21.750000 -1.141018 -1.121587
21.800000 -1.117746 -1.122062
21.850000 -1.094835 -1.122529
21.900000 -1.072849 -1.122988
21.950000 -1.052325 -1.123439
22.000000 -1.033756 -1.123881
22.050000 -1.017583 -1.124316
22.100000 -1.004182 -1.124743
22.150000 -0.993861 -1.125162
22.200000 -0.986845 -1.125574
22.250000 -0.983279 -1.125978
22.300000 -0.983220 -1.126375
22.350000 -0.986641 -1.126765
22.400000 -0.993429 -1.127148
22.450000 -1.003391 -1.127525
22.500000 -1.016259 -1.127894
22.550000 -1.031697 -1.128257
22.600000 -1.049308 -1.128613
22.650000 -1.068649 -1.128963
22.700000 -1.089240 -1.129307
22.750000 -1.110573 -1.129645
22.800000 -1.132131 -1.129976
22.850000 -1.153393 -1.130302
22.900000 -1.173855 -1.130622
22.950000 -1.193036 -1.130936
23.000000 -1.210490 -1.131244
23.050000 -1.225820 -1.131547
23.100000 -1.238685 -1.131845
23.150000 -1.248806 -1.132137
23.200000 -1.255975 -1.132424
23.250000 -1.260057 -1.132706
23.300000 -1.260994 -1.132983
23.350000 -1.258805 -1.133255
23.400000 -1.253586 -1.133522
23.450000 -1.245503 -1.133785
23.500000 -1.234790 -1.134042
23.550000 -1.221746 -1.134295
23.600000 -1.206717 -1.134544
23.650000 -1.190100 -1.134788
23.700000 -1.172320 -1.135028
23.750000 -1.153830 -1.135263
23.800000 -1.135093 -1.135495
23.850000 -1.116572 -1.135722
23.900000 -1.098722 -1.135945
23.950000 -1.081975 -1.136164
24.000000 -1.066731 -1.136379
24.050000 -1.053349 -1.136591
24.100000 -1.042140 -1.136798
24.150000 -1.033356 -1.137002
24.200000 -1.027189 -1.137203
24.250000 -1.023766 -1.137399
24.300000 -1.023143 -1.137593
24.350000 -1.025309 -1.137782
24.400000 -1.030186 -1.137969
24.450000 -1.037628 -1.138152
24.500000 -1.047431 -1.138332
24.550000 -1.059334 -1.138508
24.600000 -1.073030 -1.138682
24.650000 -1.088168 -1.138852
24.700000 -1.104369 -1.139019
24.750000 -1.121232 -1.139184
24.800000 -1.138342 -1.139345
24.850000 -1.155285 -1.139504
24.900000 -1.171654 -1.139660
24.950000 -1.187062 -1.139813
25.000000 -1.201148 -1.139963
25.050000 -1.213588 -1.140110
25.100000 -1.224101 -1.140255
25.150000 -1.232457 -1.140398
25.200000 -1.238480 -1.140538
25.250000 -1.242053 -1.140675
25.300000 -1.243119 -1.140810
25.350000 -1.241684 -1.140942
25.400000 -1.237815 -1.141073
25.450000 -1.231634 -1.141200
25.500000 -1.223322 -1.141326
25.550000 -1.213108 -1.141449
25.600000 -1.201263 -1.141570
25.650000 -1.188098 -1.141689
25.700000 -1.173951 -1.141806
25.750000 -1.159178 -1.141921
25.800000 -1.144149 -1.142034
25.850000 -1.129235 -1.142145
25.900000 -1.114801 -1.142253
25.950000 -1.101195 -1.142360
26.000000 -1.088740 -1.142465
26.050000 -1.077731 -1.142568
26.100000 -1.068420 -1.142670
26.150000 -1.061018 -1.142769
26.200000 -1.055686 -1.142867
26.250000 -1.052534 -1.142963
26.300000 -1.051615 -1.143057
26.350000 -1.052930 -1.143149
26.400000 -1.056424 -1.143240
26.450000 -1.061989 -1.143330
26.500000 -1.069471 -1.143417
26.550000 -1.078667 -1.143504
26.600000 -1.089337 -1.143588
26.650000 -1.101207 -1.143671
26.700000 -1.113977 -1.143753
26.750000 -1.127329 -1.143833
26.800000 -1.140932 -1.143912
26.850000 -1.154456 -1.143990
26.900000 -1.167575 -1.144066
26.950000 -1.179975 -1.144140
27.000000 -1.191365 -1.144214
27.050000 -1.201480 -1.144286
27.100000 -1.210092 -1.144356
27.150000 -1.217008 -1.144426
27.200000 -1.222081 -1.144494
27.250000 -1.225211 -1.144561
27.300000 -1.226343 -1.144627
27.350000 -1.225476 -1.144692
27.400000 -1.222652 -1.144756
27.450000 -1.217965 -1.144818
27.500000 -1.211551 -1.144879
27.550000 -1.203586 -1.144940
27.600000 -1.194284 -1.144999
27.650000 -1.183885 -1.145057
27.700000 -1.172658 -1.145114
27.750000 -1.160886 -1.145170
27.800000 -1.148862 -1.145225
27.850000 -1.136884 -1.145279
27.900000 -1.125242 -1.145332
27.950000 -1.114219 -1.145385
28.000000 -1.104076 -1.145436
28.050000 -1.095051 -1.145486
28.100000 -1.087354 -1.145536
28.150000 -1.081157 -1.145585
28.200000 -1.076595 -1.145632
28.250000 -1.073764 -1.145679
28.300000 -1.072712 -1.145725
28.350000 -1.073448 -1.145771
28.400000 -1.075934 -1.145815
28.450000 -1.080092 -1.145859
28.500000 -1.085803 -1.145902
28.550000 -1.092911 -1.145944
28.600000 -1.101230 -1.145985
28.650000 -1.110545 -1.146026
28.700000 -1.120618 -1.146066
28.750000 -1.131198 -1.146105
28.800000 -1.142023 -1.146144
28.850000 -1.152826 -1.146181
28.900000 -1.163348 -1.146219
28.950000 -1.173335 -1.146255
29.000000 -1.182553 -1.146291
29.050000 -1.190785 -1.146326
29.100000 -1.197844 -1.146361
29.150000 -1.203573 -1.146395
29.200000 -1.207846 -1.146428
29.250000 -1.210578 -1.146461
29.300000 -1.211720 -1.146493
29.350000 -1.211263 -1.146525
29.400000 -1.209236 -1.146556
29.450000 -1.205706 -1.146587
29.500000 -1.200779 -1.146617
29.550000 -1.194588 -1.146646
29.600000 -1.187300 -1.146675
29.650000 -1.179105 -1.146704
29.700000 -1.170214 -1.146732
29.750000 -1.160850 -1.146759
29.800000 -1.151247 -1.146786
29.850000 -1.141643 -1.146813
29.900000 -1.132271 -1.146839
29.950000 -1.123358 -1.146864
30.000000 -1.115115 -1.146889
30.050000 -1.107737 -1.146914
30.100000 -1.101394 -1.146938
30.150000 -1.096229 -1.146962
30.200000 -1.092356 -1.146985
30.250000 -1.089854 -1.147008
30.300000 -1.088770 -1.147031
30.350000 -1.089115 -1.147053
30.400000 -1.090864 -1.147075
30.450000 -1.093962 -1.147096
30.500000 -1.098317 -1.147117
30.550000 -1.103810 -1.147138
30.600000 -1.110296 -1.147158
30.650000 -1.117606 -1.147178
30.700000 -1.125554 -1.147198
30.750000 -1.133939 -1.147217
30.800000 -1.142554 -1.147236
30.850000 -1.151187 -1.147255
30.900000 -1.159627 -1.147273
30.950000 -1.167674 -1.147291
31.000000 -1.175134 -1.147308
31.050000 -1.181835 -1.147326
31.100000 -1.187621 -1.147343
31.150000 -1.192364 -1.147359
31.200000 -1.195958 -1.147376
31.250000 -1.198331 -1.147392
31.300000 -1.199439 -1.147408
31.350000 -1.199269 -1.147423
31.400000 -1.197839 -1.147438
31.450000 -1.195200 -1.147453
31.500000 -1.191428 -1.147468
31.550000 -1.186630 -1.147482
31.600000 -1.180932 -1.147497
31.650000 -1.174485 -1.147511
31.700000 -1.167453 -1.147524
31.750000 -1.160015 -1.147538
31.800000 -1.152356 -1.147551
31.850000 -1.144666 -1.147564
31.900000 -1.137132 -1.147577
31.950000 -1.129935 -1.147589
32.000000 -1.123248 -1.147602
32.050000 -1.117228 -1.147614
32.100000 -1.112014 -1.147626
32.150000 -1.107724 -1.147637
32.200000 -1.104452 -1.147649
32.250000 -1.102267 -1.147660
32.300000 -1.101211 -1.147671
32.350000 -1.101296 -1.147682
32.400000 -1.102509 -1.147693
32.450000 -1.104807 -1.147703
32.500000 -1.108122 -1.147714
32.550000 -1.112363 -1.147724
32.600000 -1.117418 -1.147734
32.650000 -1.123153 -1.147744
32.700000 -1.129422 -1.147753
32.750000 -1.136067 -1.147763
32.800000 -1.142923 -1.147772
32.850000 -1.149820 -1.147781
32.900000 -1.156590 -1.147790
32.950000 -1.163071 -1.147799
33.000000 -1.169109 -1.147807
33.050000 -1.174561 -1.147816
33.100000 -1.179301 -1.147824
33.150000 -1.183224 -1.147832
33.200000 -1.186241 -1.147840
33.250000 -1.188292 -1.147848
33.300000 -1.189335 -1.147856
33.350000 -1.189358 -1.147864
33.400000 -1.188372 -1.147871
33.450000 -1.186411 -1.147879
33.500000 -1.183535 -1.147886
33.550000 -1.179824 -1.147893
33.600000 -1.175378 -1.147900
33.650000 -1.170313 -1.147907
33.700000 -1.164759 -1.147913
33.750000 -1.158858 -1.147920
33.800000 -1.152756 -1.147927
33.850000 -1.146604 -1.147933
33.900000 -1.140554 -1.147939
33.950000 -1.134750 -1.147945
34.000000 -1.129332 -1.147951
34.050000 -1.124427 -1.147957
34.100000 -1.120149 -1.147963
34.150000 -1.116595 -1.147969
34.200000 -1.113844 -1.147975
34.250000 -1.111953 -1.147980
34.300000 -1.110960 -1.147986
34.350000 -1.110878 -1.147991
34.400000 -1.111700 -1.147996
34.450000 -1.113395 -1.148001
34.500000 -1.115913 -1.148006
34.550000 -1.119184 -1.148011
34.600000 -1.123119 -1.148016
34.650000 -1.127616 -1.148021
34.700000 -1.132559 -1.148026
34.750000 -1.137823 -1.148031
34.800000 -1.143277 -1.148035
34.850000 -1.148785 -1.148040
34.900000 -1.154215 -1.148044
34.950000 -1.159433 -1.148048
35.000000 -1.164317 -1.148053
35.050000 -1.168750 -1.148057
35.100000 -1.172631 -1.148061
35.150000 -1.175871 -1.148065
35.200000 -1.178399 -1.148069
35.250000 -1.180160 -1.148073
35.300000 -1.181122 -1.148076
35.350000 -1.181269 -1.148080
35.400000 -1.180608 -1.148084
35.450000 -1.179162 -1.148088
35.500000 -1.176977 -1.148091
35.550000 -1.174114 -1.148095
35.600000 -1.170650 -1.148098
35.650000 -1.166675 -1.148101
35.700000 -1.162294 -1.148105
35.750000 -1.157616 -1.148108
35.800000 -1.152759 -1.148111
35.850000 -1.147843 -1.148114
35.900000 -1.142988 -1.148117
35.950000 -1.138312 -1.148120
36.000000 -1.133927 -1.148123
36.050000 -1.129936 -1.148126
36.100000 -1.126431 -1.148129
36.150000 -1.123494 -1.148132
36.200000 -1.121188 -1.148135
36.250000 -1.119563 -1.148138
36.300000 -1.118652 -1.148140
36.350000 -1.118468 -1.148143
36.400000 -1.119007 -1.148145
36.450000 -1.120250 -1.148148
36.500000 -1.122157 -1.148150
36.550000 -1.124674 -1.148153
36.600000 -1.127735 -1.148155
36.650000 -1.131259 -1.148158
36.700000 -1.135154 -1.148160
36.750000 -1.139322 -1.148162
36.800000 -1.143658 -1.148165
36.850000 -1.148056 -1.148167
36.900000 -1.152408 -1.148169
36.950000 -1.156608 -1.148171
37.000000 -1.160556 -1.148173
37.050000 -1.164159 -1.148175
37.100000 -1.167333 -1.148177
37.150000 -1.170005 -1.148179
37.200000 -1.172117 -1.148181
37.250000 -1.173624 -1.148183
37.300000 -1.174495 -1.148185
37.350000 -1.174716 -1.148187
37.400000 -1.174289 -1.148189
37.450000 -1.173233 -1.148190
37.500000 -1.171579 -1.148192
37.550000 -1.169375 -1.148194
37.600000 -1.166680 -1.148196
37.650000 -1.163565 -1.148197
37.700000 -1.160112 -1.148199
37.750000 -1.156407 -1.148200
37.800000 -1.152544 -1.148202
37.850000 -1.148618 -1.148204
37.900000 -1.144726 -1.148205
37.950000 -1.140962 -1.148207
38.000000 -1.137416 -1.148208
38.050000 -1.134172 -1.148210
38.100000 -1.131306 -1.148211
38.150000 -1.128882 -1.148212
38.200000 -1.126956 -1.148214
38.250000 -1.125568 -1.148215
38.300000 -1.124747 -1.148216
38.350000 -1.124505 -1.148218
38.400000 -1.124843 -1.148219
38.450000 -1.125745 -1.148220
38.500000 -1.127185 -1.148221
38.550000 -1.129119 -1.148223
38.600000 -1.131497 -1.148224
38.650000 -1.134255 -1.148225
38.700000 -1.137323 -1.148226
38.750000 -1.140621 -1.148227
38.800000 -1.144067 -1.148228
38.850000 -1.147576 -1.148229
38.900000 -1.151063 -1.148231
38.950000 -1.154441 -1.148232
39.000000 -1.157631 -1.148233
39.050000 -1.160556 -1.148234
39.100000 -1.163149 -1.148235
39.150000 -1.165351 -1.148236
39.200000 -1.167112 -1.148237
39.250000 -1.168394 -1.148238
39.300000 -1.169172 -1.148238
39.350000 -1.169431 -1.148239
39.400000 -1.169173 -1.148240
39.450000 -1.168408 -1.148241
39.500000 -1.167161 -1.148242
39.550000 -1.165468 -1.148243
39.600000 -1.163375 -1.148244
39.650000 -1.160938 -1.148244
39.700000 -1.158218 -1.148245
39.750000 -1.155287 -1.148246
39.800000 -1.152216 -1.148247
39.850000 -1.149084 -1.148248
39.900000 -1.145966 -1.148248
39.950000 -1.142938 -1.148249
40.000000 -1.140073 -1.148250
40.050000 -1.137439 -1.148251
40.100000 -1.135097 -1.148251
40.150000 -1.133101 -1.148252
40.200000 -1.131496 -1.148253
40.250000 -1.130317 -1.148253
40.300000 -1.129586 -1.148254
40.350000 -1.129318 -1.148255
40.400000 -1.129514 -1.148255
40.450000 -1.130163 -1.148256
40.500000 -1.131245 -1.148256
40.550000 -1.132728 -1.148257
40.600000 -1.134573 -1.148258
40.650000 -1.136730 -1.148258
40.700000 -1.139143 -1.148259
40.750000 -1.141751 -1.148259
40.800000 -1.144489 -1.148260
40.850000 -1.147287 -1.148260
40.900000 -1.150078 -1.148261
40.950000 -1.152794 -1.148261
41.000000 -1.155370 -1.148262
41.050000 -1.157743 -1.148262
41.100000 -1.159860 -1.148263
41.150000 -1.161671 -1.148263
41.200000 -1.163136 -1.148264
41.250000 -1.164223 -1.148264
41.300000 -1.164909 -1.148265
41.350000 -1.165183 -1.148265
41.400000 -1.165043 -1.148266
41.450000 -1.164496 -1.148266
41.500000 -1.163560 -1.148267
41.550000 -1.162263 -1.148267
41.600000 -1.160640 -1.148267
41.650000 -1.158734 -1.148268
41.700000 -1.156595 -1.148268
41.750000 -1.154277 -1.148269
41.800000 -1.151839 -1.148269
41.850000 -1.149341 -1.148269
41.900000 -1.146845 -1.148270
41.950000 -1.144411 -1.148270
42.000000 -1.142098 -1.148270
42.050000 -1.139961 -1.148271
42.100000 -1.138050 -1.148271
42.150000 -1.136409 -1.148271
42.200000 -1.135075 -1.148272
42.250000 -1.134077 -1.148272
42.300000 -1.133434 -1.148272
42.350000 -1.133160 -1.148273
42.400000 -1.133257 -1.148273
42.450000 -1.133718 -1.148273
42.500000 -1.134527 -1.148274
42.550000 -1.135662 -1.148274
42.600000 -1.137091 -1.148274
42.650000 -1.138776 -1.148275
42.700000 -1.140673 -1.148275
42.750000 -1.142735 -1.148275
42.800000 -1.144907 -1.148275
42.850000 -1.147138 -1.148276
42.900000 -1.149371 -1.148276
42.950000 -1.151553 -1.148276
43.000000 -1.153631 -1.148276
43.050000 -1.155555 -1.148277
43.100000 -1.157281 -1.148277
43.150000 -1.158769 -1.148277
43.200000 -1.159985 -1.148277
43.250000 -1.160903 -1.148278
43.300000 -1.161503 -1.148278
43.350000 -1.161775 -1.148278
43.400000 -1.161716 -1.148278
43.450000 -1.161331 -1.148278
43.500000 -1.160632 -1.148279
43.550000 -1.159641 -1.148279
43.600000 -1.158384 -1.148279
43.650000 -1.156896 -1.148279
43.700000 -1.155215 -1.148280
43.750000 -1.153383 -1.148280
43.800000 -1.151448 -1.148280
43.850000 -1.149458 -1.148280
43.900000 -1.147461 -1.148280
43.950000 -1.145506 -1.148280
44.000000 -1.143641 -1.148281
44.050000 -1.141909 -1.148281
44.100000 -1.140351 -1.148281
44.150000 -1.139004 -1.148281
44.200000 -1.137897 -1.148281
44.250000 -1.137055 -1.148281
44.300000 -1.136495 -1.148282
44.350000 -1.136229 -1.148282
44.400000 -1.136258 -1.148282
44.450000 -1.136580 -1.148282
44.500000 -1.137183 -1.148282
44.550000 -1.138049 -1.148282
44.600000 -1.139154 -1.148283
44.650000 -1.140469 -1.148283
44.700000 -1.141959 -1.148283
44.750000 -1.143586 -1.148283
44.800000 -1.145310 -1.148283
44.850000 -1.147087 -1.148283
44.900000 -1.148873 -1.148283
44.950000 -1.150624 -1.148283
45.000000 -1.152300 -1.148284
45.050000 -1.153859 -1.148284
45.100000 -1.155265 -1.148284
45.150000 -1.156485 -1.148284
45.200000 -1.157493 -1.148284
45.250000 -1.158265 -1.148284
45.300000 -1.158786 -1.148284
45.350000 -1.159046 -1.148284
45.400000 -1.159041 -1.148284
45.450000 -1.158774 -1.148285
45.500000 -1.158256 -1.148285
45.550000 -1.157500 -1.148285
45.600000 -1.156529 -1.148285
45.650000 -1.155369 -1.148285
45.700000 -1.154049 -1.148285
45.750000 -1.152603 -1.148285
45.800000 -1.151068 -1.148285
45.850000 -1.149483 -1.148285
45.900000 -1.147887 -1.148285
45.950000 -1.146318 -1.148286
46.000000 -1.144814 -1.148286
46.050000 -1.143411 -1.148286
46.100000 -1.142143 -1.148286
46.150000 -1.141038 -1.148286
46.200000 -1.140122 -1.148286
46.250000 -1.139414 -1.148286
46.300000 -1.138930 -1.148286
46.350000 -1.138679 -1.148286
46.400000 -1.138665 -1.148286
46.450000 -1.138885 -1.148286
46.500000 -1.139331 -1.148286
46.550000 -1.139989 -1.148287
46.600000 -1.140843 -1.148287
46.650000 -1.141867 -1.148287
46.700000 -1.143037 -1.148287
46.750000 -1.144321 -1.148287
46.800000 -1.145687 -1.148287
46.850000 -1.147102 -1.148287
46.900000 -1.148529 -1.148287
46.950000 -1.149935 -1.148287
47.000000 -1.151284 -1.148287
47.050000 -1.152546 -1.148287
47.100000 -1.153691 -1.148287
47.150000 -1.154691 -1.148287
47.200000 -1.155524 -1.148287
47.250000 -1.156172 -1.148287
47.300000 -1.156621 -1.148287
47.350000 -1.156862 -1.148288
47.400000 -1.156892 -1.148288
47.450000 -1.156713 -1.148288
47.500000 -1.156330 -1.148288
47.550000 -1.155756 -1.148288
47.600000 -1.155007 -1.148288
47.650000 -1.154103 -1.148288
47.700000 -1.153068 -1.148288
47.750000 -1.151927 -1.148288
47.800000 -1.150711 -1.148288
47.850000 -1.149450 -1.148288
47.900000 -1.148174 -1.148288
47.950000 -1.146916 -1.148288
48.000000 -1.145704 -1.148288
48.050000 -1.144569 -1.148288
48.100000 -1.143537 -1.148288
48.150000 -1.142633 -1.148288
48.200000 -1.141876 -1.148288
48.250000 -1.141283 -1.148288
48.300000 -1.140867 -1.148288
48.350000 -1.140636 -1.148288
48.400000 -1.140594 -1.148288
48.450000 -1.140740 -1.148288
48.500000 -1.141068 -1.148289
48.550000 -1.141567 -1.148289
48.600000 -1.142225 -1.148289
48.650000 -1.143022 -1.148289
48.700000 -1.143939 -1.148289
48.750000 -1.144952 -1.148289
48.800000 -1.146034 -1.148289
48.850000 -1.147159 -1.148289
48.900000 -1.148299 -1.148289
48.950000 -1.149426 -1.148289
49.000000 -1.150513 -1.148289
49.050000 -1.151534 -1.148289
49.100000 -1.152464 -1.148289
49.150000 -1.153282 -1.148289
49.200000 -1.153970 -1.148289
49.250000 -1.154512 -1.148289
49.300000 -1.154897 -1.148289
49.350000 -1.155117 -1.148289
49.400000 -1.155168 -1.148289
49.450000 -1.155051 -1.148289
49.500000 -1.154771 -1.148289
49.550000 -1.154337 -1.148289
49.600000 -1.153760 -1.148289
49.650000 -1.153057 -1.148289
49.700000 -1.152245 -1.148289
49.750000 -1.151347 -1.148289
49.800000 -1.150384 -1.148289
49.850000 -1.149381 -1.148289
49.900000 -1.148362 -1.148289
49.950000 -1.147353 -1.148289
50.000000 -1.146378 -1.148289
50.050000 -1.145461 -1.148289
50.100000 -1.144622 -1.148289
50.150000 -1.143882 -1.148289
50.200000 -1.143257 -1.148289
50.250000 -1.142762 -1.148289
50.300000 -1.142407 -1.148289
50.350000 -1.142198 -1.148290
50.400000 -1.142141 -1.148290
50.450000 -1.142233 -1.148290
50.500000 -1.142472 -1.148290
50.550000 -1.142849 -1.148290
50.600000 -1.143355 -1.148290
50.650000 -1.143975 -1.148290
50.700000 -1.144693 -1.148290
50.750000 -1.145490 -1.148290
50.800000 -1.146347 -1.148290
50.850000 -1.147241 -1.148290
50.900000 -1.148151 -1.148290
50.950000 -1.149055 -1.148290
51.000000 -1.149929 -1.148290
51.050000 -1.150754 -1.148290
51.100000 -1.151510 -1.148290
51.150000 -1.152179 -1.148290
51.200000 -1.152746 -1.148290
51.250000 -1.153198 -1.148290
51.300000 -1.153526 -1.148290
51.350000 -1.153723 -1.148290
51.400000 -1.153786 -1.148290
51.450000 -1.153714 -1.148290
51.500000 -1.153511 -1.148290
51.550000 -1.153183 -1.148290
51.600000 -1.152740 -1.148290
51.650000 -1.152194 -1.148290
51.700000 -1.151559 -1.148290
51.750000 -1.150851 -1.148290
51.800000 -1.150089 -1.148290
51.850000 -1.149292 -1.148290
51.900000 -1.148479 -1.148290
51.950000 -1.147671 -1.148290
52.000000 -1.146886 -1.148290
52.050000 -1.146145 -1.148290
52.100000 -1.145464 -1.148290
52.150000 -1.144860 -1.148290
52.200000 -1.144345 -1.148290
52.250000 -1.143932 -1.148290
52.300000 -1.143630 -1.148290
52.350000 -1.143445 -1.148290
52.400000 -1.143379 -1.148290
52.450000 -1.143434 -1.148290
52.500000 -1.143606 -1.148290
52.550000 -1.143890 -1.148290
52.600000 -1.144278 -1.148290
52.650000 -1.144759 -1.148290
52.700000 -1.145321 -1.148290
52.750000 -1.145948 -1.148290
52.800000 -1.146626 -1.148290
52.850000 -1.147337 -1.148290
52.900000 -1.148063 -1.148290
52.950000 -1.148786 -1.148290
53.000000 -1.149489 -1.148290
53.050000 -1.150155 -1.148290
53.100000 -1.150769 -1.148290
53.150000 -1.151315 -1.148290
53.200000 -1.151782 -1.148290
53.250000 -1.152158 -1.148290
53.300000 -1.152437 -1.148290
53.350000 -1.152611 -1.148290
53.400000 -1.152678 -1.148290
53.450000 -1.152638 -1.148290
53.500000 -1.152492 -1.148290
53.550000 -1.152246 -1.148290
53.600000 -1.151907 -1.148290
53.650000 -1.151483 -1.148290
53.700000 -1.150987 -1.148290
53.750000 -1.150430 -1.148290
53.800000 -1.149827 -1.148290
53.850000 -1.149194 -1.148290
53.900000 -1.148546 -1.148290
53.950000 -1.147899 -1.148290
54.000000 -1.147268 -1.148290
54.050000 -1.146670 -1.148290
54.100000 -1.146117 -1.148290
54.150000 -1.145624 -1.148290
54.200000 -1.145201 -1.148290
54.250000 -1.144858 -1.148290
54.300000 -1.144602 -1.148290
54.350000 -1.144438 -1.148290
54.400000 -1.144370 -1.148290
54.450000 -1.144399 -1.148290
54.500000 -1.144521 -1.148290
54.550000 -1.144734 -1.148290
54.600000 -1.145031 -1.148290
54.650000 -1.145404 -1.148290
54.700000 -1.145843 -1.148290
54.750000 -1.146337 -1.148290
54.800000 -1.146872 -1.148290
54.850000 -1.147436 -1.148290
54.900000 -1.148015 -1.148290
54.950000 -1.148594 -1.148290
55.000000 -1.149159 -1.148290
55.050000 -1.149697 -1.148290
55.100000 -1.150194 -1.148290
55.150000 -1.150640 -1.148290
55.200000 -1.151023 -1.148290
55.250000 -1.151336 -1.148290
55.300000 -1.151571 -1.148290
55.350000 -1.151724 -1.148290
55.400000 -1.151792 -1.148290
55.450000 -1.151773 -1.148290
55.500000 -1.151670 -1.148290
55.550000 -1.151487 -1.148290
55.600000 -1.151227 -1.148290
55.650000 -1.150899 -1.148290
55.700000 -1.150511 -1.148290
55.750000 -1.150073 -1.148290
55.800000 -1.149597 -1.148290
55.850000 -1.149095 -1.148290
55.900000 -1.148578 -1.148290
55.950000 -1.148060 -1.148290
56.000000 -1.147554 -1.148290
56.050000 -1.147071 -1.148290
56.100000 -1.146623 -1.148290
56.150000 -1.146221 -1.148290
56.200000 -1.145874 -1.148290
56.250000 -1.145589 -1.148290
56.300000 -1.145373 -1.148290
56.350000 -1.145230 -1.148290
56.400000 -1.145164 -1.148290
56.450000 -1.145174 -1.148290
56.500000 -1.145260 -1.148290
56.550000 -1.145419 -1.148290
56.600000 -1.145645 -1.148290
56.650000 -1.145934 -1.148290
56.700000 -1.146276 -1.148290
56.750000 -1.146664 -1.148290
56.800000 -1.147087 -1.148290
56.850000 -1.147535 -1.148290
56.900000 -1.147996 -1.148290
56.950000 -1.148459 -1.148290
57.000000 -1.148913 -1.148290
57.050000 -1.149346 -1.148290
57.100000 -1.149749 -1.148290
57.150000 -1.150112 -1.148290
57.200000 -1.150427 -1.148290
57.250000 -1.150686 -1.148290
57.300000 -1.150885 -1.148290
57.350000 -1.151017 -1.148290
57.400000 -1.151082 -1.148290
57.450000 -1.151079 -1.148290
57.500000 -1.151007 -1.148290
57.550000 -1.150871 -1.148290
57.600000 -1.150673 -1.148290
57.650000 -1.150419 -1.148290
57.700000 -1.150116 -1.148290
57.750000 -1.149773 -1.148290
57.800000 -1.149397 -1.148291
57.850000 -1.148998 -1.148291
57.900000 -1.148587 -1.148291
57.950000 -1.148173 -1.148291
58.000000 -1.147767 -1.148291
58.050000 -1.147377 -1.148291
58.100000 -1.147015 -1.148291
58.150000 -1.146687 -1.148291
58.200000 -1.146402 -1.148291
58.250000 -1.146166 -1.148291
58.300000 -1.145984 -1.148291
58.350000 -1.145861 -1.148291
58.400000 -1.145798 -1.148291
58.450000 -1.145796 -1.148291
58.500000 -1.145855 -1.148291
58.550000 -1.145973 -1.148291
58.600000 -1.146146 -1.148291
58.650000 -1.146368 -1.148291
58.700000 -1.146636 -1.148291
58.750000 -1.146940 -1.148291
58.800000 -1.147274 -1.148291
58.850000 -1.147629 -1.148291
58.900000 -1.147996 -1.148291
58.950000 -1.148366 -1.148291
59.000000 -1.148730 -1.148291
59.050000 -1.149079 -1.148291
59.100000 -1.149406 -1.148291
59.150000 -1.149701 -1.148291
59.200000 -1.149959 -1.148291
59.250000 -1.150174 -1.148291
59.300000 -1.150340 -1.148291
59.350000 -1.150455 -1.148291
59.400000 -1.150515 -1.148291
59.450000 -1.150521 -1.148291
59.500000 -1.150473 -1.148291
59.550000 -1.150372 -1.148291
59.600000 -1.150221 -1.148291
59.650000 -1.150026 -1.148291
59.700000 -1.149790 -1.148291
59.750000 -1.149520 -1.148291
59.800000 -1.149224 -1.148291
59.850000 -1.148908 -1.148291
59.900000 -1.148581 -1.148291
59.950000 -1.148250 -1.148291
60.000000 -1.147924 -1.148291
60.050000 -1.147610 -1.148291
60.100000 -1.147317 -1.148291
60.150000 -1.147050 -1.148291
60.200000 -1.146817 -1.148291
60.250000 -1.146622 -1.148291
60.300000 -1.146469 -1.148291
60.350000 -1.146363 -1.148291
60.400000 -1.146305 -1.148291
60.450000 -1.146296 -1.148291
60.500000 -1.146335 -1.148291
60.550000 -1.146422 -1.148291
60.600000 -1.146553 -1.148291
60.650000 -1.146724 -1.148291
60.700000 -1.146932 -1.148291
60.750000 -1.147171 -1.148291
60.800000 -1.147434 -1.148291
60.850000 -1.147716 -1.148291
60.900000 -1.148008 -1.148291
60.950000 -1.148303 -1.148291
61.000000 -1.148595 -1.148291
61.050000 -1.148877 -1.148291
61.100000 -1.149141 -1.148291
61.150000 -1.149381 -1.148291
61.200000 -1.149592 -1.148291
61.250000 -1.149769 -1.148291
61.300000 -1.149909 -1.148291
61.350000 -1.150007 -1.148291
61.400000 -1.150062 -1.148291
61.450000 -1.150074 -1.148291
61.500000 -1.150042 -1.148291
61.550000 -1.149968 -1.148291
61.600000 -1.149854 -1.148291
61.650000 -1.149704 -1.148291
61.700000 -1.149520 -1.148291
61.750000 -1.149309 -1.148291
61.800000 -1.149075 -1.148291
61.850000 -1.148825 -1.148291
61.900000 -1.148565 -1.148291
61.950000 -1.148300 -1.148291
62.000000 -1.148039 -1.148291
62.050000 -1.147787 -1.148291
62.100000 -1.147549 -1.148291
62.150000 -1.147332 -1.148291
62.200000 -1.147141 -1.148291
62.250000 -1.146981 -1.148291
62.300000 -1.146853 -1.148291
62.350000 -1.146762 -1.148291
62.400000 -1.146710 -1.148291
62.450000 -1.146696 -1.148291
62.500000 -1.146721 -1.148291
62.550000 -1.146785 -1.148291
62.600000 -1.146884 -1.148291
62.650000 -1.147016 -1.148291
62.700000 -1.147178 -1.148291
62.750000 -1.147365 -1.148291
62.800000 -1.147572 -1.148291
62.850000 -1.147795 -1.148291
62.900000 -1.148027 -1.148291
62.950000 -1.148263 -1.148291
63.000000 -1.148497 -1.148291
63.050000 -1.148723 -1.148291
63.100000 -1.148937 -1.148291
63.150000 -1.149132 -1.148291
63.200000 -1.149305 -1.148291
63.250000 -1.149451 -1.148291
63.300000 -1.149567 -1.148291
63.350000 -1.149651 -1.148291
63.400000 -1.149701 -1.148291
63.450000 -1.149716 -1.148291
63.500000 -1.149696 -1.148291
63.550000 -1.149642 -1.148291
63.600000 -1.149556 -1.148291
63.650000 -1.149440 -1.148291
63.700000 -1.149298 -1.148291
63.750000 -1.149132 -1.148291
63.800000 -1.148948 -1.148291
63.850000 -1.148750 -1.148291
63.900000 -1.148543 -1.148291
63.950000 -1.148332 -1.148291
64.000000 -1.148123 -1.148291
64.050000 -1.147920 -1.148291
64.100000 -1.147728 -1.148291
64.150000 -1.147552 -1.148291
64.200000 -1.147396 -1.148291
64.250000 -1.147263 -1.148291
64.300000 -1.147157 -1.148291
64.350000 -1.147080 -1.148291
64.400000 -1.147033 -1.148291
64.450000 -1.147017 -1.148291
64.500000 -1.147032 -1.148291
64.550000 -1.147078 -1.148291
64.600000 -1.147152 -1.148291
64.650000 -1.147254 -1.148291
64.700000 -1.147379 -1.148291
64.750000 -1.147526 -1.148291
64.800000 -1.147689 -1.148291
64.850000 -1.147865 -1.148291
64.900000 -1.148050 -1.148291
64.950000 -1.148238 -1.148291
65.000000 -1.148425 -1.148291
65.050000 -1.148608 -1.148291
65.100000 -1.148780 -1.148291
65.150000 -1.148938 -1.148291
65.200000 -1.149080 -1.148291
65.250000 -1.149200 -1.148291
65.300000 -1.149297 -1.148291
65.350000 -1.149368 -1.148291
65.400000 -1.149412 -1.148291
65.450000 -1.149429 -1.148291
65.500000 -1.149417 -1.148291
65.550000 -1.149379 -1.148291
65.600000 -1.149314 -1.148291
65.650000 -1.149225 -1.148291
65.700000 -1.149115 -1.148291
65.750000 -1.148985 -1.148291
65.800000 -1.148840 -1.148291
65.850000 -1.148684 -1.148291
65.900000 -1.148519 -1.148291
65.950000 -1.148351 -1.148291
66.000000 -1.148183 -1.148291
66.050000 -1.148020 -1.148291
66.100000 -1.147865 -1.148291
66.150000 -1.147722 -1.148291
66.200000 -1.147595 -1.148291
66.250000 -1.147486 -1.148291
66.300000 -1.147398 -1.148291
66.350000 -1.147332 -1.148291
66.400000 -1.147291 -1.148291
66.450000 -1.147274 -1.148291
66.500000 -1.147282 -1.148291
66.550000 -1.147315 -1.148291
66.600000 -1.147371 -1.148291
66.650000 -1.147448 -1.148291
66.700000 -1.147546 -1.148291
66.750000 -1.147660 -1.148291
66.800000 -1.147788 -1.148291
66.850000 -1.147928 -1.148291
66.900000 -1.148074 -1.148291
66.950000 -1.148224 -1.148291
67.000000 -1.148374 -1.148291
67.050000 -1.148521 -1.148291
67.100000 -1.148660 -1.148291
67.150000 -1.148788 -1.148291
67.200000 -1.148904 -1.148291
67.250000 -1.149002 -1.148291
67.300000 -1.149083 -1.148291
67.350000 -1.149143 -1.148291
67.400000 -1.149182 -1.148291
67.450000 -1.149199 -1.148291
67.500000 -1.149193 -1.148291
67.550000 -1.149166 -1.148291
67.600000 -1.149117 -1.148291
67.650000 -1.149049 -1.148291
67.700000 -1.148964 -1.148291
67.750000 -1.148863 -1.148291
67.800000 -1.148749 -1.148291
67.850000 -1.148625 -1.148291
67.900000 -1.148495 -1.148291
67.950000 -1.148361 -1.148291
68.000000 -1.148226 -1.148291
68.050000 -1.148095 -1.148291
68.100000 -1.147970 -1.148291
68.150000 -1.147854 -1.148291
68.200000 -1.147751 -1.148291
68.250000 -1.147661 -1.148291
68.300000 -1.147588 -1.148291
68.350000 -1.147532 -1.148291
68.400000 -1.147496 -1.148291
68.450000 -1.147479 -1.148291
68.500000 -1.147483 -1.148291
68.550000 -1.147506 -1.148291
68.600000 -1.147548 -1.148291
68.650000 -1.147607 -1.148291
68.700000 -1.147682 -1.148291
68.750000 -1.147772 -1.148291
68.800000 -1.147872 -1.148291
68.850000 -1.147982 -1.148291
68.900000 -1.148099 -1.148291
68.950000 -1.148218 -1.148291
69.000000 -1.148338 -1.148291
69.050000 -1.148456 -1.148291
69.100000 -1.148568 -1.148291
69.150000 -1.148672 -1.148291
69.200000 -1.148766 -1.148291
69.250000 -1.148847 -1.148291
69.300000 -1.148914 -1.148291
69.350000 -1.148965 -1.148291
69.400000 -1.148999 -1.148291
69.450000 -1.149015 -1.148291
69.500000 -1.149013 -1.148291
69.550000 -1.148994 -1.148291
69.600000 -1.148958 -1.148291
69.650000 -1.148906 -1.148291
69.700000 -1.148840 -1.148291
69.750000 -1.148761 -1.148291
69.800000 -1.148672 -1.148291
69.850000 -1.148574 -1.148291
69.900000 -1.148471 -1.148291
69.950000 -1.148364 -1.148291
70.000000 -1.148256 -1.148291
70.050000 -1.148151 -1.148291
70.100000 -1.148050 -1.148291
70.150000 -1.147957 -1.148291
70.200000 -1.147872 -1.148291
70.250000 -1.147799 -1.148291
70.300000 -1.147738 -1.148291
70.350000 -1.147691 -1.148291
70.400000 -1.147660 -1.148291
70.450000 -1.147644 -1.148291
70.500000 -1.147644 -1.148291
70.550000 -1.147660 -1.148291
70.600000 -1.147691 -1.148291
70.650000 -1.147736 -1.148291
70.700000 -1.147794 -1.148291
70.750000 -1.147864 -1.148291
70.800000 -1.147943 -1.148291
70.850000 -1.148030 -1.148291
70.900000 -1.148122 -1.148291
70.950000 -1.148217 -1.148291
71.000000 -1.148313 -1.148291
71.050000 -1.148408 -1.148291
71.100000 -1.148498 -1.148291
71.150000 -1.148583 -1.148291
71.200000 -1.148659 -1.148291
71.250000 -1.148725 -1.148291
71.300000 -1.148781 -1.148291
71.350000 -1.148823 -1.148291
71.400000 -1.148853 -1.148291
71.450000 -1.148868 -1.148291
71.500000 -1.148869 -1.148291
71.550000 -1.148856 -1.148291
71.600000 -1.148829 -1.148291
71.650000 -1.148790 -1.148291
71.700000 -1.148739 -1.148291
71.750000 -1.148677 -1.148291
71.800000 -1.148607 -1.148291
71.850000 -1.148530 -1.148291
71.900000 -1.148448 -1.148291
71.950000 -1.148363 -1.148291
72.000000 -1.148277 -1.148291
72.050000 -1.148193 -1.148291
72.100000 -1.148111 -1.148291
72.150000 -1.148035 -1.148291
72.200000 -1.147967 -1.148291
72.250000 -1.147906 -1.148291
72.300000 -1.147856 -1.148291
72.350000 -1.147817 -1.148291
72.400000 -1.147790 -1.148291
72.450000 -1.147775 -1.148291
72.500000 -1.147773 -1.148291
72.550000 -1.147784 -1.148291
72.600000 -1.147807 -1.148291
72.650000 -1.147841 -1.148291
72.700000 -1.147886 -1.148291
72.750000 -1.147940 -1.148291
72.800000 -1.148003 -1.148291
72.850000 -1.148071 -1.148291
72.900000 -1.148144 -1.148291
72.950000 -1.148220 -1.148291
73.000000 -1.148296 -1.148291
73.050000 -1.148372 -1.148291
73.100000 -1.148445 -1.148291
73.150000 -1.148513 -1.148291
73.200000 -1.148575 -1.148291
73.250000 -1.148630 -1.148291
73.300000 -1.148675 -1.148291
73.350000 -1.148711 -1.148291
73.400000 -1.148736 -1.148291
73.450000 -1.148750 -1.148291
73.500000 -1.148753 -1.148291
73.550000 -1.148744 -1.148291
73.600000 -1.148725 -1.148291
73.650000 -1.148695 -1.148291
73.700000 -1.148656 -1.148291
73.750000 -1.148608 -1.148291
73.800000 -1.148553 -1.148291
73.850000 -1.148492 -1.148291
73.900000 -1.148427 -1.148291
73.950000 -1.148359 -1.148291
74.000000 -1.148291 -1.148291
74.050000 -1.148223 -1.148291
74.100000 -1.148158 -1.148291
74.150000 -1.148096 -1.148291
74.200000 -1.148040 -1.148291
74.250000 -1.147991 -1.148291
74.300000 -1.147950 -1.148291
74.350000 -1.147917 -1.148291
74.400000 -1.147894 -1.148291
74.450000 -1.147880 -1.148291
74.500000 -1.147877 -1.148291
74.550000 -1.147884 -1.148291
74.600000 -1.147901 -1.148291
74.650000 -1.147927 -1.148291
74.700000 -1.147961 -1.148291
74.750000 -1.148003 -1.148291
74.800000 -1.148052 -1.148291
74.850000 -1.148106 -1.148291
74.900000 -1.148164 -1.148291
74.950000 -1.148224 -1.148291
75.000000 -1.148285 -1.148291
75.050000 -1.148346 -1.148291
75.100000 -1.148405 -1.148291
75.150000 -1.148460 -1.148291
75.200000 -1.148510 -1.148291
75.250000 -1.148555 -1.148291
75.300000 -1.148593 -1.148291
75.350000 -1.148622 -1.148291
75.400000 -1.148644 -1.148291
75.450000 -1.148657 -1.148291
75.500000 -1.148660 -1.148291
75.550000 -1.148655 -1.148291
75.600000 -1.148640 -1.148291
75.650000 -1.148618 -1.148291
75.700000 -1.148588 -1.148291
75.750000 -1.148550 -1.148291
75.800000 -1.148507 -1.148291
75.850000 -1.148459 -1.148291
75.900000 -1.148408 -1.148291
75.950000 -1.148354 -1.148291
76.000000 -1.148300 -1.148291
76.050000 -1.148245 -1.148291
76.100000 -1.148193 -1.148291
76.150000 -1.148143 -1.148291
76.200000 -1.148098 -1.148291
76.250000 -1.148057 -1.148291
76.300000 -1.148023 -1.148291
76.350000 -1.147996 -1.148291
76.400000 -1.147976 -1.148291
76.450000 -1.147964 -1.148291
76.500000 -1.147960 -1.148291
76.550000 -1.147965 -1.148291
76.600000 -1.147977 -1.148291
76.650000 -1.147996 -1.148291
76.700000 -1.148023 -1.148291
76.750000 -1.148056 -1.148291
76.800000 -1.148094 -1.148291
76.850000 -1.148136 -1.148291
76.900000 -1.148182 -1.148291
76.950000 -1.148230 -1.148291
77.000000 -1.148279 -1.148291
77.050000 -1.148327 -1.148291
77.100000 -1.148374 -1.148291
77.150000 -1.148419 -1.148291
77.200000 -1.148460 -1.148291
77.250000 -1.148496 -1.148291
77.300000 -1.148527 -1.148291
77.350000 -1.148552 -1.148291
77.400000 -1.148570 -1.148291
77.450000 -1.148582 -1.148291
77.500000 -1.148586 -1.148291
77.550000 -1.148583 -1.148291
77.600000 -1.148572 -1.148291
77.650000 -1.148555 -1.148291
77.700000 -1.148532 -1.148291
77.750000 -1.148503 -1.148291
77.800000 -1.148469 -1.148291
77.850000 -1.148432 -1.148291
77.900000 -1.148391 -1.148291
77.950000 -1.148348 -1.148291
78.000000 -1.148305 -1.148291
78.050000 -1.148261 -1.148291
78.100000 -1.148219 -1.148291
78.150000 -1.148179 -1.148291
78.200000 -1.148142 -1.148291
78.250000 -1.148109 -1.148291
78.300000 -1.148081 -1.148291
78.350000 -1.148058 -1.148291
78.400000 -1.148042 -1.148291
78.450000 -1.148031 -1.148291
78.500000 -1.148027 -1.148291
78.550000 -1.148029 -1.148291
78.600000 -1.148038 -1.148291
78.650000 -1.148053 -1.148291
78.700000 -1.148073 -1.148291
78.750000 -1.148098 -1.148291
78.800000 -1.148128 -1.148291
78.850000 -1.148162 -1.148291
78.900000 -1.148198 -1.148291
78.950000 -1.148236 -1.148291
79.000000 -1.148275 -1.148291
79.050000 -1.148314 -1.148291
79.100000 -1.148352 -1.148291
79.150000 -1.148388 -1.148291
79.200000 -1.148421 -1.148291
79.250000 -1.148450 -1.148291
79.300000 -1.148476 -1.148291
79.350000 -1.148497 -1.148291
79.400000 -1.148512 -1.148291
79.450000 -1.148522 -1.148291
79.500000 -1.148526 -1.148291
79.550000 -1.148525 -1.148291
79.600000 -1.148517 -1.148291
79.650000 -1.148504 -1.148291
79.700000 -1.148487 -1.148291
79.750000 -1.148464 -1.148291
79.800000 -1.148438 -1.148291
79.850000 -1.148408 -1.148291
79.900000 -1.148376 -1.148291
79.950000 -1.148342 -1.148291
80.000000 -1.148308 -1.148291
80.050000 -1.148273 -1.148291
80.100000 -1.148239 -1.148291
80.150000 -1.148206 -1.148291
80.200000 -1.148177 -1.148291
80.250000 -1.148150 -1.148291
80.300000 -1.148127 -1.148291
80.350000 -1.148108 -1.148291
80.400000 -1.148094 -1.148291
80.450000 -1.148084 -1.148291
80.500000 -1.148080 -1.148291
80.550000 -1.148081 -1.148291
80.600000 -1.148087 -1.148291
80.650000 -1.148098 -1.148291
80.700000 -1.148114 -1.148291
80.750000 -1.148134 -1.148291
80.800000 -1.148157 -1.148291
80.850000 -1.148183 -1.148291
80.900000 -1.148212 -1.148291
80.950000 -1.148242 -1.148291
81.000000 -1.148273 -1.148291
81.050000 -1.148304 -1.148291
81.100000 -1.148334 -1.148291
81.150000 -1.148364 -1.148291
81.200000 -1.148390 -1.148291
81.250000 -1.148415 -1.148291
81.300000 -1.148436 -1.148291
81.350000 -1.148453 -1.148291
81.400000 -1.148466 -1.148291
81.450000 -1.148474 -1.148291
81.500000 -1.148478 -1.148291
81.550000 -1.148478 -1.148291
81.600000 -1.148473 -1.148291
81.650000 -1.148463 -1.148291
81.700000 -1.148450 -1.148291
81.750000 -1.148432 -1.148291
81.800000 -1.148412 -1.148291
81.850000 -1.148389 -1.148291
81.900000 -1.148363 -1.148291
81.950000 -1.148336 -1.148291
82.000000 -1.148309 -1.148291
82.050000 -1.148281 -1.148291
82.100000 -1.148254 -1.148291
82.150000 -1.148227 -1.148291
82.200000 -1.148203 -1.148291
82.250000 -1.148181 -1.148291
82.300000 -1.148162 -1.148291
82.350000 -1.148147 -1.148291
82.400000 -1.148135 -1.148291
82.450000 -1.148127 -1.148291
82.500000 -1.148123 -1.148291
82.550000 -1.148123 -1.148291
82.600000 -1.148127 -1.148291
82.650000 -1.148135 -1.148291
82.700000 -1.148147 -1.148291
82.750000 -1.148162 -1.148291
82.800000 -1.148181 -1.148291
82.850000 -1.148201 -1.148291
82.900000 -1.148224 -1.148291
82.950000 -1.148248 -1.148291
83.000000 -1.148272 -1.148291
83.050000 -1.148297 -1.148291
83.100000 -1.148322 -1.148291
83.150000 -1.148345 -1.148291
83.200000 -1.148367 -1.148291
83.250000 -1.148387 -1.148291
83.300000 -1.148404 -1.148291
83.350000 -1.148418 -1.148291
83.400000 -1.148429 -1.148291
83.450000 -1.148437 -1.148291
83.500000 -1.148440 -1.148291
83.550000 -1.148441 -1.148291
83.600000 -1.148437 -1.148291
83.650000 -1.148430 -1.148291
83.700000 -1.148420 -1.148291
83.750000 -1.148406 -1.148291
83.800000 -1.148390 -1.148291
83.850000 -1.148372 -1.148291
83.900000 -1.148352 -1.148291
83.950000 -1.148331 -1.148291
84.000000 -1.148309 -1.148291
84.050000 -1.148286 -1.148291
84.100000 -1.148264 -1.148291
84.150000 -1.148243 -1.148291
84.200000 -1.148224 -1.148291
84.250000 -1.148206 -1.148291
84.300000 -1.148190 -1.148291
84.350000 -1.148178 -1.148291
84.400000 -1.148168 -1.148291
84.450000 -1.148161 -1.148291
84.500000 -1.148157 -1.148291
84.550000 -1.148156 -1.148291
84.600000 -1.148159 -1.148291
84.650000 -1.148165 -1.148291
84.700000 -1.148174 -1.148291
84.750000 -1.148186 -1.148291
84.800000 -1.148200 -1.148291
84.850000 -1.148216 -1.148291
84.900000 -1.148234 -1.148291
84.950000 -1.148253 -1.148291
85.000000 -1.148273 -1.148291
85.050000 -1.148293 -1.148291
85.100000 -1.148312 -1.148291
85.150000 -1.148331 -1.148291
85.200000 -1.148349 -1.148291
85.250000 -1.148365 -1.148291
85.300000 -1.148379 -1.148291
85.350000 -1.148391 -1.148291
85.400000 -1.148400 -1.148291
85.450000 -1.148406 -1.148291
85.500000 -1.148410 -1.148291
85.550000 -1.148410 -1.148291
85.600000 -1.148408 -1.148291
85.650000 -1.148403 -1.148291
85.700000 -1.148395 -1.148291
85.750000 -1.148385 -1.148291
85.800000 -1.148372 -1.148291
85.850000 -1.148358 -1.148291
85.900000 -1.148342 -1.148291
85.950000 -1.148325 -1.148291
86.000000 -1.148308 -1.148291
86.050000 -1.148290 -1.148291
86.100000 -1.148272 -1.148291
86.150000 -1.148256 -1.148291
86.200000 -1.148240 -1.148291
86.250000 -1.148225 -1.148291
86.300000 -1.148212 -1.148291
86.350000 -1.148202 -1.148291
86.400000 -1.148193 -1.148291
86.450000 -1.148187 -1.148291
86.500000 -1.148184 -1.148291
86.550000 -1.148183 -1.148291
86.600000 -1.148185 -1.148291
86.650000 -1.148190 -1.148291
86.700000 -1.148196 -1.148291
86.750000 -1.148206 -1.148291
86.800000 -1.148217 -1.148291
86.850000 -1.148229 -1.148291
86.900000 -1.148243 -1.148291
86.950000 -1.148258 -1.148291
87.000000 -1.148274 -1.148291
87.050000 -1.148290 -1.148291
87.100000 -1.148306 -1.148291
87.150000 -1.148321 -1.148291
87.200000 -1.148335 -1.148291
87.250000 -1.148348 -1.148291
87.300000 -1.148360 -1.148291
87.350000 -1.148369 -1.148291
87.400000 -1.148377 -1.148291
87.450000 -1.148382 -1.148291
87.500000 -1.148386 -1.148291
87.550000 -1.148386 -1.148291
87.600000 -1.148385 -1.148291
87.650000 -1.148381 -1.148291
87.700000 -1.148375 -1.148291
87.750000 -1.148367 -1.148291
87.800000 -1.148358 -1.148291
87.850000 -1.148346 -1.148291
87.900000 -1.148334 -1.148291
87.950000 -1.148321 -1.148291
88.000000 -1.148307 -1.148291
88.050000 -1.148292 -1.148291
88.100000 -1.148278 -1.148291
88.150000 -1.148265 -1.148291
88.200000 -1.148252 -1.148291
88.250000 -1.148240 -1.148291
88.300000 -1.148230 -1.148291
88.350000 -1.148221 -1.148291
88.400000 -1.148214 -1.148291
88.450000 -1.148209 -1.148291
88.500000 -1.148206 -1.148291
88.550000 -1.148205 -1.148291
88.600000 -1.148206 -1.148291
88.650000 -1.148209 -1.148291
88.700000 -1.148214 -1.148291
88.750000 -1.148221 -1.148291
88.800000 -1.148230 -1.148291
88.850000 -1.148240 -1.148291
88.900000 -1.148251 -1.148291
88.950000 -1.148263 -1.148291
89.000000 -1.148275 -1.148291
89.050000 -1.148288 -1.148291
89.100000 -1.148301 -1.148291
89.150000 -1.148313 -1.148291
89.200000 -1.148324 -1.148291
89.250000 -1.148335 -1.148291
89.300000 -1.148344 -1.148291
89.350000 -1.148352 -1.148291
89.400000 -1.148359 -1.148291
89.450000 -1.148363 -1.148291
89.500000 -1.148366 -1.148291
89.550000 -1.148367 -1.148291
89.600000 -1.148366 -1.148291
89.650000 -1.148364 -1.148291
89.700000 -1.148359 -1.148291
89.750000 -1.148353 -1.148291
89.800000 -1.148345 -1.148291
89.850000 -1.148337 -1.148291
89.900000 -1.148327 -1.148291
89.950000 -1.148316 -1.148291
90.000000 -1.148305 -1.148291
90.050000 -1.148294 -1.148291
90.100000 -1.148283 -1.148291
90.150000 -1.148272 -1.148291
90.200000 -1.148261 -1.148291
90.250000 -1.148252 -1.148291
90.300000 -1.148243 -1.148291
90.350000 -1.148236 -1.148291
90.400000 -1.148230 -1.148291
90.450000 -1.148226 -1.148291
90.500000 -1.148223 -1.148291
90.550000 -1.148222 -1.148291
90.600000 -1.148223 -1.148291
90.650000 -1.148225 -1.148291
90.700000 -1.148229 -1.148291
90.750000 -1.148234 -1.148291
90.800000 -1.148241 -1.148291
90.850000 -1.148249 -1.148291
90.900000 -1.148257 -1.148291
90.950000 -1.148267 -1.148291
91.000000 -1.148277 -1.148291
91.050000 -1.148287 -1.148291
91.100000 -1.148297 -1.148291
91.150000 -1.148307 -1.148291
91.200000 -1.148316 -1.148291
91.250000 -1.148325 -1.148291
91.300000 -1.148332 -1.148291
91.350000 -1.148339 -1.148291
91.400000 -1.148344 -1.148291
91.450000 -1.148348 -1.148291
91.500000 -1.148351 -1.148291
91.550000 -1.148352 -1.148291
91.600000 -1.148351 -1.148291
91.650000 -1.148349 -1.148291
91.700000 -1.148346 -1.148291
91.750000 -1.148341 -1.148291
91.800000 -1.148335 -1.148291
91.850000 -1.148329 -1.148291
91.900000 -1.148321 -1.148291
91.950000 -1.148312 -1.148291
92.000000 -1.148304 -1.148291
92.050000 -1.148295 -1.148291
92.100000 -1.148286 -1.148291
92.150000 -1.148277 -1.148291
92.200000 -1.148268 -1.148291
92.250000 -1.148261 -1.148291
92.300000 -1.148254 -1.148291
92.350000 -1.148248 -1.148291
92.400000 -1.148243 -1.148291
92.450000 -1.148239 -1.148291
92.500000 -1.148237 -1.148291
92.550000 -1.148236 -1.148291
92.600000 -1.148236 -1.148291
92.650000 -1.148238 -1.148291
92.700000 -1.148241 -1.148291
92.750000 -1.148245 -1.148291
92.800000 -1.148250 -1.148291
92.850000 -1.148256 -1.148291
92.900000 -1.148263 -1.148291
92.950000 -1.148270 -1.148291
93.000000 -1.148278 -1.148291
93.050000 -1.148286 -1.148291
93.100000 -1.148294 -1.148291
93.150000 -1.148302 -1.148291
93.200000 -1.148310 -1.148291
93.250000 -1.148317 -1.148291
93.300000 -1.148323 -1.148291
93.350000 -1.148328 -1.148291
93.400000 -1.148333 -1.148291
93.450000 -1.148336 -1.148291
93.500000 -1.148338 -1.148291
93.550000 -1.148339 -1.148291
93.600000 -1.148339 -1.148291
93.650000 -1.148338 -1.148291
93.700000 -1.148335 -1.148291
93.750000 -1.148332 -1.148291
93.800000 -1.148327 -1.148291
93.850000 -1.148322 -1.148291
93.900000 -1.148316 -1.148291
93.950000 -1.148309 -1.148291
94.000000 -1.148302 -1.148291
94.050000 -1.148295 -1.148291
94.100000 -1.148288 -1.148291
94.150000 -1.148281 -1.148291
94.200000 -1.148274 -1.148291
94.250000 -1.148268 -1.148291
94.300000 -1.148262 -1.148291
94.350000 -1.148257 -1.148291
94.400000 -1.148253 -1.148291
94.450000 -1.148250 -1.148291
94.500000 -1.148248 -1.148291
94.550000 -1.148247 -1.148291
94.600000 -1.148247 -1.148291
94.650000 -1.148248 -1.148291
94.700000 -1.148250 -1.148291
94.750000 -1.148254 -1.148291
94.800000 -1.148257 -1.148291
94.850000 -1.148262 -1.148291
94.900000 -1.148268 -1.148291
94.950000 -1.148273 -1.148291
95.000000 -1.148280 -1.148291
95.050000 -1.148286 -1.148291
95.100000 -1.148293 -1.148291
95.150000 -1.148299 -1.148291
95.200000 -1.148305 -1.148291
95.250000 -1.148311 -1.148291
95.300000 -1.148316 -1.148291
95.350000 -1.148320 -1.148291
95.400000 -1.148324 -1.148291
95.450000 -1.148327 -1.148291
95.500000 -1.148328 -1.148291
95.550000 -1.148329 -1.148291
95.600000 -1.148329 -1.148291
95.650000 -1.148329 -1.148291
95.700000 -1.148327 -1.148291
95.750000 -1.148324 -1.148291
95.800000 -1.148320 -1.148291
95.850000 -1.148316 -1.148291
95.900000 -1.148312 -1.148291
95.950000 -1.148306 -1.148291
96.000000 -1.148301 -1.148291
96.050000 -1.148295 -1.148291
96.100000 -1.148289 -1.148291
96.150000 -1.148284 -1.148291
96.200000 -1.148278 -1.148291
96.250000 -1.148273 -1.148291
96.300000 -1.148268 -1.148291
96.350000 -1.148264 -1.148291
96.400000 -1.148261 -1.148291
96.450000 -1.148259 -1.148291
96.500000 -1.148257 -1.148291
96.550000 -1.148256 -1.148291
96.600000 -1.148256 -1.148291
96.650000 -1.148257 -1.148291
96.700000 -1.148258 -1.148291
96.750000 -1.148261 -1.148291
96.800000 -1.148264 -1.148291
96.850000 -1.148267 -1.148291
96.900000 -1.148272 -1.148291
96.950000 -1.148276 -1.148291
97.000000 -1.148281 -1.148291
97.050000 -1.148286 -1.148291
97.100000 -1.148291 -1.148291
97.150000 -1.148296 -1.148291
97.200000 -1.148301 -1.148291
97.250000 -1.148306 -1.148291
97.300000 -1.148310 -1.148291
97.350000 -1.148314 -1.148291
97.400000 -1.148317 -1.148291
97.450000 -1.148319 -1.148291
97.500000 -1.148321 -1.148291
97.550000 -1.148322 -1.148291
97.600000 -1.148322 -1.148291
97.650000 -1.148321 -1.148291
97.700000 -1.148320 -1.148291
97.750000 -1.148318 -1.148291
97.800000 -1.148315 -1.148291
97.850000 -1.148312 -1.148291
97.900000 -1.148308 -1.148291
97.950000 -1.148304 -1.148291
98.000000 -1.148299 -1.148291
98.050000 -1.148295 -1.148291
98.100000 -1.148290 -1.148291
98.150000 -1.148286 -1.148291
98.200000 -1.148281 -1.148291
98.250000 -1.148277 -1.148291
98.300000 -1.148274 -1.148291
98.350000 -1.148270 -1.148291
98.400000 -1.148267 -1.148291
98.450000 -1.148265 -1.148291
98.500000 -1.148264 -1.148291
98.550000 -1.148263 -1.148291
98.600000 -1.148263 -1.148291
98.650000 -1.148263 -1.148291
98.700000 -1.148264 -1.148291
98.750000 -1.148266 -1.148291
98.800000 -1.148269 -1.148291
98.850000 -1.148271 -1.148291
98.900000 -1.148275 -1.148291
98.950000 -1.148278 -1.148291
99.000000 -1.148282 -1.148291
99.050000 -1.148286 -1.148291
99.100000 -1.148291 -1.148291
99.150000 -1.148295 -1.148291
99.200000 -1.148299 -1.148291
99.250000 -1.148302 -1.148291
99.300000 -1.148306 -1.148291
99.350000 -1.148309 -1.148291
99.400000 -1.148311 -1.148291
99.450000 -1.148313 -1.148291
99.500000 -1.148314 -1.148291
99.550000 -1.148315 -1.148291
99.600000 -1.148315 -1.148291
99.650000 -1.148315 -1.148291
99.700000 -1.148314 -1.148291
99.750000 -1.148312 -1.148291
99.800000 -1.148310 -1.148291
99.850000 -1.148308 -1.148291
99.900000 -1.148305 -1.148291
99.950000 -1.148302 -1.148291
100.000000 -1.148298 -1.148291
100.050000 -1.148295 -1.148291
100.100000 -1.148291 -1.148291
100.150000 -1.148287 -1.148291
100.200000 -1.148284 -1.148291
100.250000 -1.148280 -1.148291
100.300000 -1.148277 -1.148291
100.350000 -1.148275 -1.148291
100.400000 -1.148272 -1.148291
100.450000 -1.148271 -1.148291
100.500000 -1.148269 -1.148291
100.550000 -1.148269 -1.148291
100.600000 -1.148268 -1.148291
100.650000 -1.148269 -1.148291
100.700000 -1.148270 -1.148291
100.750000 -1.148271 -1.148291
100.800000 -1.148273 -1.148291
100.850000 -1.148275 -1.148291
100.900000 -1.148278 -1.148291
100.950000 -1.148280 -1.148291
101.000000 -1.148283 -1.148291
101.050000 -1.148287 -1.148291
101.100000 -1.148290 -1.148291
101.150000 -1.148293 -1.148291
101.200000 -1.148296 -1.148291
101.250000 -1.148299 -1.148291
101.300000 -1.148302 -1.148291
101.350000 -1.148305 -1.148291
101.400000 -1.148307 -1.148291
101.450000 -1.148308 -1.148291
101.500000 -1.148309 -1.148291
101.550000 -1.148310 -1.148291
101.600000 -1.148310 -1.148291
101.650000 -1.148310 -1.148291
101.700000 -1.148309 -1.148291
101.750000 -1.148308 -1.148291
101.800000 -1.148307 -1.148291
101.850000 -1.148305 -1.148291
101.900000 -1.148302 -1.148291
101.950000 -1.148300 -1.148291
102.000000 -1.148297 -1.148291
102.050000 -1.148294 -1.148291
102.100000 -1.148291 -1.148291
102.150000 -1.148288 -1.148291
102.200000 -1.148286 -1.148291
102.250000 -1.148283 -1.148291
102.300000 -1.148280 -1.148291
102.350000 -1.148278 -1.148291
102.400000 -1.148276 -1.148291
102.450000 -1.148275 -1.148291
102.500000 -1.148274 -1.148291
102.550000 -1.148273 -1.148291
102.600000 -1.148273 -1.148291
102.650000 -1.148273 -1.148291
102.700000 -1.148274 -1.148291
102.750000 -1.148275 -1.148291
102.800000 -1.148276 -1.148291
102.850000 -1.148278 -1.148291
102.900000 -1.148280 -1.148291
102.950000 -1.148282 -1.148291
103.000000 -1.148285 -1.148291
103.050000 -1.148287 -1.148291
103.100000 -1.148290 -1.148291
103.150000 -1.148292 -1.148291
103.200000 -1.148295 -1.148291
103.250000 -1.148297 -1.148291
103.300000 -1.148299 -1.148291
103.350000 -1.148301 -1.148291
103.400000 -1.148303 -1.148291
103.450000 -1.148305 -1.148291
103.500000 -1.148306 -1.148291
103.550000 -1.148306 -1.148291
103.600000 -1.148306 -1.148291
103.650000 -1.148306 -1.148291
103.700000 -1.148306 -1.148291
103.750000 -1.148305 -1.148291
103.800000 -1.148304 -1.148291
103.850000 -1.148302 -1.148291
103.900000 -1.148300 -1.148291
103.950000 -1.148298 -1.148291
104.000000 -1.148296 -1.148291
104.050000 -1.148294 -1.148291
104.100000 -1.148292 -1.148291
104.150000 -1.148289 -1.148291
104.200000 -1.148287 -1.148291
104.250000 -1.148285 -1.148291
104.300000 -1.148283 -1.148291
104.350000 -1.148281 -1.148291
104.400000 -1.148279 -1.148291
104.450000 -1.148278 -1.148291
104.500000 -1.148277 -1.148291
104.550000 -1.148277 -1.148291
104.600000 -1.148276 -1.148291
104.650000 -1.148277 -1.148291
104.700000 -1.148277 -1.148291
104.750000 -1.148278 -1.148291
104.800000 -1.148279 -1.148291
104.850000 -1.148280 -1.148291
104.900000 -1.148282 -1.148291
104.950000 -1.148283 -1.148291
105.000000 -1.148285 -1.148291
105.050000 -1.148287 -1.148291
105.100000 -1.148290 -1.148291
105.150000 -1.148292 -1.148291
105.200000 -1.148294 -1.148291
105.250000 -1.148296 -1.148291
105.300000 -1.148297 -1.148291
105.350000 -1.148299 -1.148291
105.400000 -1.148300 -1.148291
105.450000 -1.148302 -1.148291
105.500000 -1.148302 -1.148291
105.550000 -1.148303 -1.148291
105.600000 -1.148303 -1.148291
105.650000 -1.148303 -1.148291
105.700000 -1.148303 -1.148291
105.750000 -1.148302 -1.148291
105.800000 -1.148301 -1.148291
105.850000 -1.148300 -1.148291
105.900000 -1.148299 -1.148291
105.950000 -1.148297 -1.148291
106.000000 -1.148295 -1.148291
106.050000 -1.148294 -1.148291
106.100000 -1.148292 -1.148291
106.150000 -1.148290 -1.148291
106.200000 -1.148288 -1.148291
106.250000 -1.148286 -1.148291
106.300000 -1.148285 -1.148291
106.350000 -1.148283 -1.148291
106.400000 -1.148282 -1.148291
106.450000 -1.148281 -1.148291
106.500000 -1.148280 -1.148291
106.550000 -1.148280 -1.148291
106.600000 -1.148279 -1.148291
106.650000 -1.148279 -1.148291
106.700000 -1.148280 -1.148291
106.750000 -1.148280 -1.148291
106.800000 -1.148281 -1.148291
106.850000 -1.148282 -1.148291
106.900000 -1.148283 -1.148291
106.950000 -1.148285 -1.148291
107.000000 -1.148286 -1.148291
107.050000 -1.148288 -1.148291
107.100000 -1.148289 -1.148291
107.150000 -1.148291 -1.148291
107.200000 -1.148293 -1.148291
107.250000 -1.148294 -1.148291
107.300000 -1.148296 -1.148291
107.350000 -1.148297 -1.148291
107.400000 -1.148298 -1.148291
107.450000 -1.148299 -1.148291
107.500000 -1.148300 -1.148291
107.550000 -1.148300 -1.148291
107.600000 -1.148301 -1.148291
107.650000 -1.148301 -1.148291
107.700000 -1.148300 -1.148291
107.750000 -1.148300 -1.148291
107.800000 -1.148299 -1.148291
107.850000 -1.148298 -1.148291
107.900000 -1.148297 -1.148291
107.950000 -1.148296 -1.148291
108.000000 -1.148295 -1.148291
108.050000 -1.148293 -1.148291
108.100000 -1.148292 -1.148291
108.150000 -1.148290 -1.148291
108.200000 -1.148289 -1.148291
108.250000 -1.148287 -1.148291
108.300000 -1.148286 -1.148291
108.350000 -1.148285 -1.148291
108.400000 -1.148284 -1.148291
108.450000 -1.148283 -1.148291
108.500000 -1.148282 -1.148291
108.550000 -1.148282 -1.148291
108.600000 -1.148282 -1.148291
108.650000 -1.148282 -1.148291
108.700000 -1.148282 -1.148291
108.750000 -1.148282 -1.148291
108.800000 -1.148283 -1.148291
108.850000 -1.148284 -1.148291
108.900000 -1.148285 -1.148291
108.950000 -1.148286 -1.148291
109.000000 -1.148287 -1.148291
109.050000 -1.148288 -1.148291
109.100000 -1.148289 -1.148291
109.150000 -1.148291 -1.148291
109.200000 -1.148292 -1.148291
109.250000 -1.148293 -1.148291
109.300000 -1.148295 -1.148291
109.350000 -1.148296 -1.148291
109.400000 -1.148297 -1.148291
109.450000 -1.148297 -1.148291
109.500000 -1.148298 -1.148291
109.550000 -1.148298 -1.148291
109.600000 -1.148299 -1.148291
109.650000 -1.148299 -1.148291
109.700000 -1.148298 -1.148291
109.750000 -1.148298 -1.148291
109.800000 -1.148298 -1.148291
109.850000 -1.148297 -1.148291
109.900000 -1.148296 -1.148291
109.950000 -1.148295 -1.148291
110.000000 -1.148294 -1.148291
110.050000 -1.148293 -1.148291
110.100000 -1.148292 -1.148291
110.150000 -1.148290 -1.148291
110.200000 -1.148289 -1.148291
110.250000 -1.148288 -1.148291
110.300000 -1.148287 -1.148291
110.350000 -1.148286 -1.148291
110.400000 -1.148285 -1.148291
110.450000 -1.148285 -1.148291
110.500000 -1.148284 -1.148291
110.550000 -1.148284 -1.148291
110.600000 -1.148283 -1.148291
110.650000 -1.148283 -1.148291
110.700000 -1.148284 -1.148291
110.750000 -1.148284 -1.148291
110.800000 -1.148284 -1.148291
110.850000 -1.148285 -1.148291
110.900000 -1.148286 -1.148291
110.950000 -1.148287 -1.148291
111.000000 -1.148287 -1.148291
111.050000 -1.148288 -1.148291
111.100000 -1.148290 -1.148291
111.150000 -1.148291 -1.148291
111.200000 -1.148292 -1.148291
111.250000 -1.148293 -1.148291
111.300000 -1.148294 -1.148291
111.350000 -1.148294 -1.148291
111.400000 -1.148295 -1.148291
111.450000 -1.148296 -1.148291
111.500000 -1.148296 -1.148291
111.550000 -1.148297 -1.148291
111.600000 -1.148297 -1.148291
111.650000 -1.148297 -1.148291
111.700000 -1.148297 -1.148291
111.750000 -1.148297 -1.148291
111.800000 -1.148296 -1.148291
111.850000 -1.148296 -1.148291
111.900000 -1.148295 -1.148291
111.950000 -1.148294 -1.148291
112.000000 -1.148293 -1.148291
112.050000 -1.148293 -1.148291
112.100000 -1.148292 -1.148291
112.150000 -1.148291 -1.148291
112.200000 -1.148290 -1.148291
112.250000 -1.148289 -1.148291
112.300000 -1.148288 -1.148291
112.350000 -1.148287 -1.148291
112.400000 -1.148286 -1.148291
112.450000 -1.148286 -1.148291
112.500000 -1.148285 -1.148291
112.550000 -1.148285 -1.148291
112.600000 -1.148285 -1.148291
112.650000 -1.148285 -1.148291
112.700000 -1.148285 -1.148291
112.750000 -1.148285 -1.148291
112.800000 -1.148285 -1.148291
112.850000 -1.148286 -1.148291
112.900000 -1.148287 -1.148291
112.950000 -1.148287 -1.148291
113.000000 -1.148288 -1.148291
113.050000 -1.148289 -1.148291
113.100000 -1.148290 -1.148291
113.150000 -1.148290 -1.148291
113.200000 -1.148291 -1.148291
113.250000 -1.148292 -1.148291
113.300000 -1.148293 -1.148291
113.350000 -1.148294 -1.148291
113.400000 -1.148294 -1.148291
113.450000 -1.148295 -1.148291
113.500000 -1.148295 -1.148291
113.550000 -1.148295 -1.148291
113.600000 -1.148296 -1.148291
113.650000 -1.148296 -1.148291
113.700000 -1.148296 -1.148291
113.750000 -1.148295 -1.148291
113.800000 -1.148295 -1.148291
113.850000 -1.148295 -1.148291
113.900000 -1.148294 -1.148291
113.950000 -1.148294 -1.148291
114.000000 -1.148293 -1.148291
114.050000 -1.148292 -1.148291
114.100000 -1.148292 -1.148291
114.150000 -1.148291 -1.148291
114.200000 -1.148290 -1.148291
114.250000 -1.148289 -1.148291
114.300000 -1.148289 -1.148291
114.350000 -1.148288 -1.148291
114.400000 -1.148287 -1.148291
114.450000 -1.148287 -1.148291
114.500000 -1.148286 -1.148291
114.550000 -1.148286 -1.148291
114.600000 -1.148286 -1.148291
114.650000 -1.148286 -1.148291
114.700000 -1.148286 -1.148291
114.750000 -1.148286 -1.148291
114.800000 -1.148286 -1.148291
114.850000 -1.148287 -1.148291
114.900000 -1.148287 -1.148291
114.950000 -1.148288 -1.148291
115.000000 -1.148288 -1.148291
115.050000 -1.148289 -1.148291
115.100000 -1.148290 -1.148291
115.150000 -1.148290 -1.148291
115.200000 -1.148291 -1.148291
115.250000 -1.148292 -1.148291
115.300000 -1.148292 -1.148291
115.350000 -1.148293 -1.148291
115.400000 -1.148293 -1.148291
115.450000 -1.148294 -1.148291
115.500000 -1.148294 -1.148291
115.550000 -1.148294 -1.148291
115.600000 -1.148295 -1.148291
115.650000 -1.148295 -1.148291
115.700000 -1.148295 -1.148291
115.750000 -1.148295 -1.148291
115.800000 -1.148294 -1.148291
115.850000 -1.148294 -1.148291
115.900000 -1.148294 -1.148291
115.950000 -1.148293 -1.148291
116.000000 -1.148293 -1.148291
116.050000 -1.148292 -1.148291
116.100000 -1.148291 -1.148291
116.150000 -1.148291 -1.148291
116.200000 -1.148290 -1.148291
116.250000 -1.148290 -1.148291
116.300000 -1.148289 -1.148291
116.350000 -1.148289 -1.148291
116.400000 -1.148288 -1.148291
116.450000 -1.148288 -1.148291
116.500000 -1.148287 -1.148291
116.550000 -1.148287 -1.148291
116.600000 -1.148287 -1.148291
116.650000 -1.148287 -1.148291
116.700000 -1.148287 -1.148291
116.750000 -1.148287 -1.148291
116.800000 -1.148287 -1.148291
116.850000 -1.148288 -1.148291
116.900000 -1.148288 -1.148291
116.950000 -1.148288 -1.148291
117.000000 -1.148289 -1.148291
117.050000 -1.148289 -1.148291
117.100000 -1.148290 -1.148291
117.150000 -1.148290 -1.148291
117.200000 -1.148291 -1.148291
117.250000 -1.148291 -1.148291
117.300000 -1.148292 -1.148291
117.350000 -1.148292 -1.148291
117.400000 -1.148293 -1.148291
117.450000 -1.148293 -1.148291
117.500000 -1.148293 -1.148291
117.550000 -1.148294 -1.148291
117.600000 -1.148294 -1.148291
117.650000 -1.148294 -1.148291
117.700000 -1.148294 -1.148291
117.750000 -1.148294 -1.148291
117.800000 -1.148294 -1.148291
117.850000 -1.148293 -1.148291
117.900000 -1.148293 -1.148291
117.950000 -1.148293 -1.148291
118.000000 -1.148292 -1.148291
118.050000 -1.148292 -1.148291
118.100000 -1.148291 -1.148291
118.150000 -1.148291 -1.148291
118.200000 -1.148290 -1.148291
118.250000 -1.148290 -1.148291
118.300000 -1.148289 -1.148291
118.350000 -1.148289 -1.148291
118.400000 -1.148289 -1.148291
118.450000 -1.148288 -1.148291
118.500000 -1.148288 -1.148291
118.550000 -1.148288 -1.148291
118.600000 -1.148288 -1.148291
118.650000 -1.148288 -1.148291
118.700000 -1.148288 -1.148291
118.750000 -1.148288 -1.148291
118.800000 -1.148288 -1.148291
118.850000 -1.148288 -1.148291
118.900000 -1.148288 -1.148291
118.950000 -1.148289 -1.148291
119.000000 -1.148289 -1.148291
119.050000 -1.148289 -1.148291
119.100000 -1.148290 -1.148291
119.150000 -1.148290 -1.148291
119.200000 -1.148291 -1.148291
119.250000 -1.148291 -1.148291
119.300000 -1.148292 -1.148291
119.350000 -1.148292 -1.148291
119.400000 -1.148292 -1.148291
119.450000 -1.148293 -1.148291
119.500000 -1.148293 -1.148291
119.550000 -1.148293 -1.148291
119.600000 -1.148293 -1.148291
119.650000 -1.148293 -1.148291
119.700000 -1.148293 -1.148291
119.750000 -1.148293 -1.148291
119.800000 -1.148293 -1.148291
119.850000 -1.148293 -1.148291
119.900000 -1.148293 -1.148291
119.950000 -1.148292 -1.148291
120.000000 -1.148292 -1.148291
120.050000 -1.148292 -1.148291
120.100000 -1.148291 -1.148291
120.150000 -1.148291 -1.148291
120.200000 -1.148290 -1.148291
120.250000 -1.148290 -1.148291
120.300000 -1.148290 -1.148291
120.350000 -1.148289 -1.148291
120.400000 -1.148289 -1.148291
120.450000 -1.148289 -1.148291
120.500000 -1.148289 -1.148291
120.550000 -1.148288 -1.148291
120.600000 -1.148288 -1.148291
120.650000 -1.148288 -1.148291
120.700000 -1.148288 -1.148291
120.750000 -1.148288 -1.148291
120.800000 -1.148288 -1.148291
120.850000 -1.148289 -1.148291
120.900000 -1.148289 -1.148291
120.950000 -1.148289 -1.148291
121.000000 -1.148289 -1.148291
121.050000 -1.148290 -1.148291
121.100000 -1.148290 -1.148291
121.150000 -1.148290 -1.148291
121.200000 -1.148291 -1.148291
121.250000 -1.148291 -1.148291
121.300000 -1.148291 -1.148291
121.350000 -1.148292 -1.148291
121.400000 -1.148292 -1.148291
121.450000 -1.148292 -1.148291
121.500000 -1.148292 -1.148291
121.550000 -1.148293 -1.148291
121.600000 -1.148293 -1.148291
121.650000 -1.148293 -1.148291
121.700000 -1.148293 -1.148291
121.750000 -1.148293 -1.148291
121.800000 -1.148293 -1.148291
121.850000 -1.148292 -1.148291
121.900000 -1.148292 -1.148291
121.950000 -1.148292 -1.148291
122.000000 -1.148292 -1.148291
122.050000 -1.148291 -1.148291
122.100000 -1.148291 -1.148291
122.150000 -1.148291 -1.148291
122.200000 -1.148291 -1.148291
122.250000 -1.148290 -1.148291
122.300000 -1.148290 -1.148291
122.350000 -1.148290 -1.148291
122.400000 -1.148289 -1.148291
122.450000 -1.148289 -1.148291
122.500000 -1.148289 -1.148291
122.550000 -1.148289 -1.148291
122.600000 -1.148289 -1.148291
122.650000 -1.148289 -1.148291
122.700000 -1.148289 -1.148291
122.750000 -1.148289 -1.148291
122.800000 -1.148289 -1.148291
122.850000 -1.148289 -1.148291
122.900000 -1.148289 -1.148291
122.950000 -1.148289 -1.148291
123.000000 -1.148290 -1.148291
123.050000 -1.148290 -1.148291
123.100000 -1.148290 -1.148291
123.150000 -1.148290 -1.148291
123.200000 -1.148291 -1.148291
123.250000 -1.148291 -1.148291
123.300000 -1.148291 -1.148291
123.350000 -1.148291 -1.148291
123.400000 -1.148292 -1.148291
123.450000 -1.148292 -1.148291
123.500000 -1.148292 -1.148291
123.550000 -1.148292 -1.148291
123.600000 -1.148292 -1.148291
123.650000 -1.148292 -1.148291
123.700000 -1.148292 -1.148291
123.750000 -1.148292 -1.148291
123.800000 -1.148292 -1.148291
123.850000 -1.148292 -1.148291
123.900000 -1.148292 -1.148291
123.950000 -1.148292 -1.148291
124.000000 -1.148292 -1.148291
124.050000 -1.148291 -1.148291
124.100000 -1.148291 -1.148291
124.150000 -1.148291 -1.148291
124.200000 -1.148291 -1.148291
124.250000 -1.148290 -1.148291
124.300000 -1.148290 -1.148291
124.350000 -1.148290 -1.148291
124.400000 -1.148290 -1.148291
124.450000 -1.148290 -1.148291
124.500000 -1.148289 -1.148291
124.550000 -1.148289 -1.148291
124.600000 -1.148289 -1.148291
124.650000 -1.148289 -1.148291
124.700000 -1.148289 -1.148291
124.750000 -1.148289 -1.148291
124.800000 -1.148289 -1.148291
124.850000 -1.148289 -1.148291
124.900000 -1.148289 -1.148291
124.950000 -1.148290 -1.148291
125.000000 -1.148290 -1.148291
125.050000 -1.148290 -1.148291
125.100000 -1.148290 -1.148291
125.150000 -1.148290 -1.148291
125.200000 -1.148291 -1.148291
125.250000 -1.148291 -1.148291
125.300000 -1.148291 -1.148291
125.350000 -1.148291 -1.148291
125.400000 -1.148291 -1.148291
125.450000 -1.148292 -1.148291
125.500000 -1.148292 -1.148291
125.550000 -1.148292 -1.148291
125.600000 -1.148292 -1.148291
125.650000 -1.148292 -1.148291
125.700000 -1.148292 -1.148291
125.750000 -1.148292 -1.148291
125.800000 -1.148292 -1.148291
125.850000 -1.148292 -1.148291
125.900000 -1.148292 -1.148291
125.950000 -1.148292 -1.148291
126.000000 -1.148291 -1.148291
126.050000 -1.148291 -1.148291
126.100000 -1.148291 -1.148291
126.150000 -1.148291 -1.148291
126.200000 -1.148291 -1.148291
126.250000 -1.148290 -1.148291
126.300000 -1.148290 -1.148291
126.350000 -1.148290 -1.148291
126.400000 -1.148290 -1.148291
126.450000 -1.148290 -1.148291
126.500000 -1.148290 -1.148291
126.550000 -1.148290 -1.148291
126.600000 -1.148289 -1.148291
126.650000 -1.148289 -1.148291
126.700000 -1.148289 -1.148291
126.750000 -1.148289 -1.148291
126.800000 -1.148289 -1.148291
126.850000 -1.148290 -1.148291
126.900000 -1.148290 -1.148291
126.950000 -1.148290 -1.148291
127.000000 -1.148290 -1.148291
127.050000 -1.148290 -1.148291
127.100000 -1.148290 -1.148291
127.150000 -1.148290 -1.148291
127.200000 -1.148291 -1.148291
127.250000 -1.148291 -1.148291
127.300000 -1.148291 -1.148291
127.350000 -1.148291 -1.148291
127.400000 -1.148291 -1.148291
127.450000 -1.148291 -1.148291
127.500000 -1.148291 -1.148291
127.550000 -1.148292 -1.148291
127.600000 -1.148292 -1.148291
127.650000 -1.148292 -1.148291
127.700000 -1.148292 -1.148291
127.750000 -1.148292 -1.148291
127.800000 -1.148292 -1.148291
127.850000 -1.148292 -1.148291
127.900000 -1.148291 -1.148291
127.950000 -1.148291 -1.148291
128.000000 -1.148291 -1.148291
128.050000 -1.148291 -1.148291
128.100000 -1.148291 -1.148291
128.150000 -1.148291 -1.148291
128.200000 -1.148291 -1.148291
128.250000 -1.148290 -1.148291
128.300000 -1.148290 -1.148291
128.350000 -1.148290 -1.148291
128.400000 -1.148290 -1.148291
128.450000 -1.148290 -1.148291
128.500000 -1.148290 -1.148291
128.550000 -1.148290 -1.148291
128.600000 -1.148290 -1.148291
128.650000 -1.148290 -1.148291
128.700000 -1.148290 -1.148291
128.750000 -1.148290 -1.148291
128.800000 -1.148290 -1.148291
128.850000 -1.148290 -1.148291
128.900000 -1.148290 -1.148291
128.950000 -1.148290 -1.148291
129.000000 -1.148290 -1.148291
129.050000 -1.148290 -1.148291
129.100000 -1.148290 -1.148291
129.150000 -1.148290 -1.148291
129.200000 -1.148291 -1.148291
129.250000 -1.148291 -1.148291
129.300000 -1.148291 -1.148291
129.350000 -1.148291 -1.148291
129.400000 -1.148291 -1.148291
129.450000 -1.148291 -1.148291
129.500000 -1.148291 -1.148291
129.550000 -1.148291 -1.148291
129.600000 -1.148291 -1.148291
129.650000 -1.148291 -1.148291
129.700000 -1.148291 -1.148291
129.750000 -1.148291 -1.148291
129.800000 -1.148291 -1.148291
129.850000 -1.148291 -1.148291
129.900000 -1.148291 -1.148291
129.950000 -1.148291 -1.148291
130.000000 -1.148291 -1.148291
130.050000 -1.148291 -1.148291
130.100000 -1.148291 -1.148291
130.150000 -1.148291 -1.148291
130.200000 -1.148291 -1.148291
130.250000 -1.148291 -1.148291
130.300000 -1.148290 -1.148291
130.350000 -1.148290 -1.148291
130.400000 -1.148290 -1.148291
130.450000 -1.148290 -1.148291
130.500000 -1.148290 -1.148291
130.550000 -1.148290 -1.148291
130.600000 -1.148290 -1.148291
130.650000 -1.148290 -1.148291
130.700000 -1.148290 -1.148291
130.750000 -1.148290 -1.148291
130.800000 -1.148290 -1.148291
130.850000 -1.148290 -1.148291
130.900000 -1.148290 -1.148291
130.950000 -1.148290 -1.148291
131.000000 -1.148290 -1.148291
131.050000 -1.148290 -1.148291
131.100000 -1.148290 -1.148291
131.150000 -1.148290 -1.148291
131.200000 -1.148291 -1.148291
131.250000 -1.148291 -1.148291
131.300000 -1.148291 -1.148291
131.350000 -1.148291 -1.148291
131.400000 -1.148291 -1.148291
131.450000 -1.148291 -1.148291
131.500000 -1.148291 -1.148291
131.550000 -1.148291 -1.148291
131.600000 -1.148291 -1.148291
131.650000 -1.148291 -1.148291
131.700000 -1.148291 -1.148291
131.750000 -1.148291 -1.148291
131.800000 -1.148291 -1.148291
131.850000 -1.148291 -1.148291
131.900000 -1.148291 -1.148291
131.950000 -1.148291 -1.148291
132.000000 -1.148291 -1.148291
132.050000 -1.148291 -1.148291
132.100000 -1.148291 -1.148291
132.150000 -1.148291 -1.148291
132.200000 -1.148291 -1.148291
132.250000 -1.148291 -1.148291
132.300000 -1.148290 -1.148291
132.350000 -1.148290 -1.148291
132.400000 -1.148290 -1.148291
132.450000 -1.148290 -1.148291
132.500000 -1.148290 -1.148291
132.550000 -1.148290 -1.148291
132.600000 -1.148290 -1.148291
132.650000 -1.148290 -1.148291
132.700000 -1.148290 -1.148291
132.750000 -1.148290 -1.148291
132.800000 -1.148290 -1.148291
132.850000 -1.148290 -1.148291
132.900000 -1.148290 -1.148291
132.950000 -1.148290 -1.148291
133.000000 -1.148290 -1.148291
133.050000 -1.148290 -1.148291
133.100000 -1.148290 -1.148291
133.150000 -1.148290 -1.148291
133.200000 -1.148291 -1.148291
133.250000 -1.148291 -1.148291
133.300000 -1.148291 -1.148291
133.350000 -1.148291 -1.148291
133.400000 -1.148291 -1.148291
133.450000 -1.148291 -1.148291
133.500000 -1.148291 -1.148291
133.550000 -1.148291 -1.148291
133.600000 -1.148291 -1.148291
133.650000 -1.148291 -1.148291
133.700000 -1.148291 -1.148291
133.750000 -1.148291 -1.148291
133.800000 -1.148291 -1.148291
133.850000 -1.148291 -1.148291
133.900000 -1.148291 -1.148291
133.950000 -1.148291 -1.148291
134.000000 -1.148291 -1.148291
134.050000 -1.148291 -1.148291
134.100000 -1.148291 -1.148291
134.150000 -1.148291 -1.148291
134.200000 -1.148291 -1.148291
134.250000 -1.148291 -1.148291
134.300000 -1.148290 -1.148291
134.350000 -1.148290 -1.148291
134.400000 -1.148290 -1.148291
134.450000 -1.148290 -1.148291
134.500000 -1.148290 -1.148291
134.550000 -1.148290 -1.148291
134.600000 -1.148290 -1.148291
134.650000 -1.148290 -1.148291
134.700000 -1.148290 -1.148291
134.750000 -1.148290 -1.148291
134.800000 -1.148290 -1.148291
134.850000 -1.148290 -1.148291
134.900000 -1.148290 -1.148291
134.950000 -1.148290 -1.148291
135.000000 -1.148290 -1.148291
135.050000 -1.148290 -1.148291
135.100000 -1.148290 -1.148291
135.150000 -1.148290 -1.148291
135.200000 -1.148291 -1.148291
135.250000 -1.148291 -1.148291
135.300000 -1.148291 -1.148291
135.350000 -1.148291 -1.148291
135.400000 -1.148291 -1.148291
135.450000 -1.148291 -1.148291
135.500000 -1.148291 -1.148291
135.550000 -1.148291 -1.148291
135.600000 -1.148291 -1.148291
135.650000 -1.148291 -1.148291
135.700000 -1.148291 -1.148291
135.750000 -1.148291 -1.148291
135.800000 -1.148291 -1.148291
135.850000 -1.148291 -1.148291
135.900000 -1.148291 -1.148291
135.950000 -1.148291 -1.148291
136.000000 -1.148291 -1.148291
136.050000 -1.148291 -1.148291
136.100000 -1.148291 -1.148291
136.150000 -1.148291 -1.148291
136.200000 -1.148291 -1.148291
136.250000 -1.148291 -1.148291
136.300000 -1.148291 -1.148291
136.350000 -1.148290 -1.148291
136.400000 -1.148290 -1.148291
136.450000 -1.148290 -1.148291
136.500000 -1.148290 -1.148291
136.550000 -1.148290 -1.148291
136.600000 -1.148290 -1.148291
136.650000 -1.148290 -1.148291
136.700000 -1.148290 -1.148291
136.750000 -1.148290 -1.148291
136.800000 -1.148290 -1.148291
136.850000 -1.148290 -1.148291
136.900000 -1.148290 -1.148291
136.950000 -1.148290 -1.148291
137.000000 -1.148290 -1.148291
137.050000 -1.148290 -1.148291
137.100000 -1.148290 -1.148291
137.150000 -1.148290 -1.148291
137.200000 -1.148291 -1.148291
137.250000 -1.148291 -1.148291
137.300000 -1.148291 -1.148291
137.350000 -1.148291 -1.148291
137.400000 -1.148291 -1.148291
137.450000 -1.148291 -1.148291
137.500000 -1.148291 -1.148291
137.550000 -1.148291 -1.148291
137.600000 -1.148291 -1.148291
137.650000 -1.148291 -1.148291
137.700000 -1.148291 -1.148291
137.750000 -1.148291 -1.148291
137.800000 -1.148291 -1.148291
137.850000 -1.148291 -1.148291
137.900000 -1.148291 -1.148291
137.950000 -1.148291 -1.148291
138.000000 -1.148291 -1.148291
138.050000 -1.148291 -1.148291
138.100000 -1.148291 -1.148291
138.150000 -1.148291 -1.148291
138.200000 -1.148291 -1.148291
138.250000 -1.148291 -1.148291
138.300000 -1.148291 -1.148291
138.350000 -1.148290 -1.148291
138.400000 -1.148290 -1.148291
138.450000 -1.148290 -1.148291
138.500000 -1.148290 -1.148291
138.550000 -1.148290 -1.148291
138.600000 -1.148290 -1.148291
138.650000 -1.148290 -1.148291
138.700000 -1.148290 -1.148291
138.750000 -1.148290 -1.148291
138.800000 -1.148290 -1.148291
138.850000 -1.148290 -1.148291
138.900000 -1.148290 -1.148291
138.950000 -1.148290 -1.148291
139.000000 -1.148290 -1.148291
139.050000 -1.148290 -1.148291
139.100000 -1.148290 -1.148291
139.150000 -1.148290 -1.148291
139.200000 -1.148291 -1.148291
139.250000 -1.148291 -1.148291
139.300000 -1.148291 -1.148291
139.350000 -1.148291 -1.148291
139.400000 -1.148291 -1.148291
139.450000 -1.148291 -1.148291
139.500000 -1.148291 -1.148291
139.550000 -1.148291 -1.148291
139.600000 -1.148291 -1.148291
139.650000 -1.148291 -1.148291
139.700000 -1.148291 -1.148291
139.750000 -1.148291 -1.148291
139.800000 -1.148291 -1.148291
139.850000 -1.148291 -1.148291
139.900000 -1.148291 -1.148291
139.950000 -1.148291 -1.148291
140.000000 -1.148291 -1.148291
140.050000 -1.148291 -1.148291
140.100000 -1.148291 -1.148291
140.150000 -1.148291 -1.148291
140.200000 -1.148291 -1.148291
140.250000 -1.148291 -1.148291
140.300000 -1.148291 -1.148291
140.350000 -1.148291 -1.148291
140.400000 -1.148290 -1.148291
140.450000 -1.148290 -1.148291
140.500000 -1.148290 -1.148291
140.550000 -1.148290 -1.148291
140.600000 -1.148290 -1.148291
140.650000 -1.148290 -1.148291
140.700000 -1.148290 -1.148291
140.750000 -1.148290 -1.148291
140.800000 -1.148290 -1.148291
140.850000 -1.148290 -1.148291
140.900000 -1.148290 -1.148291
140.950000 -1.148290 -1.148291
141.000000 -1.148290 -1.148291
141.050000 -1.148290 -1.148291
141.100000 -1.148290 -1.148291
141.150000 -1.148290 -1.148291
141.200000 -1.148291 -1.148291
141.250000 -1.148291 -1.148291
141.300000 -1.148291 -1.148291
141.350000 -1.148291 -1.148291
141.400000 -1.148291 -1.148291
141.450000 -1.148291 -1.148291
141.500000 -1.148291 -1.148291
141.550000 -1.148291 -1.148291
141.600000 -1.148291 -1.148291
141.650000 -1.148291 -1.148291
141.700000 -1.148291 -1.148291
141.750000 -1.148291 -1.148291
141.800000 -1.148291 -1.148291
141.850000 -1.148291 -1.148291
141.900000 -1.148291 -1.148291
141.950000 -1.148291 -1.148291
142.000000 -1.148291 -1.148291
142.050000 -1.148291 -1.148291
142.100000 -1.148291 -1.148291
142.150000 -1.148291 -1.148291
142.200000 -1.148291 -1.148291
142.250000 -1.148291 -1.148291
142.300000 -1.148291 -1.148291
142.350000 -1.148291 -1.148291
142.400000 -1.148291 -1.148291
142.450000 -1.148290 -1.148291
142.500000 -1.148290 -1.148291
142.550000 -1.148290 -1.148291
142.600000 -1.148290 -1.148291
142.650000 -1.148290 -1.148291
142.700000 -1.148290 -1.148291
142.750000 -1.148290 -1.148291
142.800000 -1.148290 -1.148291
142.850000 -1.148290 -1.148291
142.900000 -1.148290 -1.148291
142.950000 -1.148290 -1.148291
143.000000 -1.148290 -1.148291
143.050000 -1.148290 -1.148291
143.100000 -1.148290 -1.148291
143.150000 -1.148291 -1.148291
143.200000 -1.148291 -1.148291
143.250000 -1.148291 -1.148291
143.300000 -1.148291 -1.148291
143.350000 -1.148291 -1.148291
143.400000 -1.148291 -1.148291
143.450000 -1.148291 -1.148291
143.500000 -1.148291 -1.148291
143.550000 -1.148291 -1.148291
143.600000 -1.148291 -1.148291
143.650000 -1.148291 -1.148291
143.700000 -1.148291 -1.148291
143.750000 -1.148291 -1.148291
143.800000 -1.148291 -1.148291
143.850000 -1.148291 -1.148291
143.900000 -1.148291 -1.148291
143.950000 -1.148291 -1.148291
144.000000 -1.148291 -1.148291
144.050000 -1.148291 -1.148291
144.100000 -1.148291 -1.148291
144.150000 -1.148291 -1.148291
144.200000 -1.148291 -1.148291
144.250000 -1.148291 -1.148291
144.300000 -1.148291 -1.148291
144.350000 -1.148291 -1.148291
144.400000 -1.148291 -1.148291
144.450000 -1.148290 -1.148291
144.500000 -1.148290 -1.148291
144.550000 -1.148290 -1.148291
144.600000 -1.148290 -1.148291
144.650000 -1.148290 -1.148291
144.700000 -1.148290 -1.148291
144.750000 -1.148290 -1.148291
144.800000 -1.148290 -1.148291
144.850000 -1.148290 -1.148291
144.900000 -1.148290 -1.148291
144.950000 -1.148290 -1.148291
145.000000 -1.148290 -1.148291
145.050000 -1.148290 -1.148291
145.100000 -1.148290 -1.148291
145.150000 -1.148291 -1.148291
145.200000 -1.148291 -1.148291
145.250000 -1.148291 -1.148291
145.300000 -1.148291 -1.148291
145.350000 -1.148291 -1.148291
145.400000 -1.148291 -1.148291
145.450000 -1.148291 -1.148291
145.500000 -1.148291 -1.148291
145.550000 -1.148291 -1.148291
145.600000 -1.148291 -1.148291
145.650000 -1.148291 -1.148291
145.700000 -1.148291 -1.148291
145.750000 -1.148291 -1.148291
145.800000 -1.148291 -1.148291
145.850000 -1.148291 -1.148291
145.900000 -1.148291 -1.148291
145.950000 -1.148291 -1.148291
146.000000 -1.148291 -1.148291
146.050000 -1.148291 -1.148291
146.100000 -1.148291 -1.148291
146.150000 -1.148291 -1.148291
146.200000 -1.148291 -1.148291
146.250000 -1.148291 -1.148291
146.300000 -1.148291 -1.148291
146.350000 -1.148291 -1.148291
146.400000 -1.148291 -1.148291
146.450000 -1.148291 -1.148291
146.500000 -1.148291 -1.148291
146.550000 -1.148290 -1.148291
146.600000 -1.148290 -1.148291
146.650000 -1.148290 -1.148291
146.700000 -1.148290 -1.148291
146.750000 -1.148290 -1.148291
146.800000 -1.148290 -1.148291
146.850000 -1.148290 -1.148291
146.900000 -1.148290 -1.148291
146.950000 -1.148290 -1.148291
147.000000 -1.148290 -1.148291
147.050000 -1.148290 -1.148291
147.100000 -1.148291 -1.148291
147.150000 -1.148291 -1.148291
147.200000 -1.148291 -1.148291
147.250000 -1.148291 -1.148291
147.300000 -1.148291 -1.148291
147.350000 -1.148291 -1.148291
147.400000 -1.148291 -1.148291
147.450000 -1.148291 -1.148291
147.500000 -1.148291 -1.148291
147.550000 -1.148291 -1.148291
147.600000 -1.148291 -1.148291
147.650000 -1.148291 -1.148291
147.700000 -1.148291 -1.148291
147.750000 -1.148291 -1.148291
147.800000 -1.148291 -1.148291
147.850000 -1.148291 -1.148291
147.900000 -1.148291 -1.148291
147.950000 -1.148291 -1.148291
148.000000 -1.148291 -1.148291
148.050000 -1.148291 -1.148291
148.100000 -1.148291 -1.148291
148.150000 -1.148291 -1.148291
148.200000 -1.148291 -1.148291
148.250000 -1.148291 -1.148291
148.300000 -1.148291 -1.148291
148.350000 -1.148291 -1.148291
148.400000 -1.148291 -1.148291
148.450000 -1.148291 -1.148291
148.500000 -1.148291 -1.148291
148.550000 -1.148291 -1.148291
148.600000 -1.148290 -1.148291
148.650000 -1.148290 -1.148291
148.700000 -1.148290 -1.148291
148.750000 -1.148290 -1.148291
148.800000 -1.148290 -1.148291
148.850000 -1.148290 -1.148291
148.900000 -1.148290 -1.148291
148.950000 -1.148290 -1.148291
149.000000 -1.148291 -1.148291
149.050000 -1.148291 -1.148291
149.100000 -1.148291 -1.148291
149.150000 -1.148291 -1.148291
149.200000 -1.148291 -1.148291
149.250000 -1.148291 -1.148291
149.300000 -1.148291 -1.148291
149.350000 -1.148291 -1.148291
149.400000 -1.148291 -1.148291
149.450000 -1.148291 -1.148291
149.500000 -1.148291 -1.148291
149.550000 -1.148291 -1.148291
149.600000 -1.148291 -1.148291
149.650000 -1.148291 -1.148291
149.700000 -1.148291 -1.148291
149.750000 -1.148291 -1.148291
149.800000 -1.148291 -1.148291
149.850000 -1.148291 -1.148291
149.900000 -1.148291 -1.148291
149.950000 -1.148291 -1.148291
150.000000 -1.148291 -1.148291
150.050000 -1.148291 -1.148291
150.100000 -1.148291 -1.148291
150.150000 -1.148291 -1.148291
150.200000 -1.148291 -1.148291
150.250000 -1.148291 -1.148291
150.300000 -1.148291 -1.148291
150.350000 -1.148291 -1.148291
150.400000 -1.148291 -1.148291
150.450000 -1.148291 -1.148291
150.500000 -1.148291 -1.148291
150.550000 -1.148291 -1.148291
150.600000 -1.148291 -1.148291
150.650000 -1.148291 -1.148291
150.700000 -1.148291 -1.148291
150.750000 -1.148291 -1.148291
150.800000 -1.148290 -1.148291
150.850000 -1.148291 -1.148291
150.900000 -1.148291 -1.148291
150.950000 -1.148291 -1.148291
151.000000 -1.148291 -1.148291
151.050000 -1.148291 -1.148291
151.100000 -1.148291 -1.148291
151.150000 -1.148291 -1.148291
151.200000 -1.148291 -1.148291
151.250000 -1.148291 -1.148291
151.300000 -1.148291 -1.148291
151.350000 -1.148291 -1.148291
151.400000 -1.148291 -1.148291
151.450000 -1.148291 -1.148291
151.500000 -1.148291 -1.148291
151.550000 -1.148291 -1.148291
151.600000 -1.148291 -1.148291
151.650000 -1.148291 -1.148291
151.700000 -1.148291 -1.148291
151.750000 -1.148291 -1.148291
151.800000 -1.148291 -1.148291
151.850000 -1.148291 -1.148291
151.900000 -1.148291 -1.148291
151.950000 -1.148291 -1.148291
152.000000 -1.148291 -1.148291
152.050000 -1.148291 -1.148291
152.100000 -1.148291 -1.148291
152.150000 -1.148291 -1.148291
152.200000 -1.148291 -1.148291
152.250000 -1.148291 -1.148291
152.300000 -1.148291 -1.148291
152.350000 -1.148291 -1.148291
152.400000 -1.148291 -1.148291
152.450000 -1.148291 -1.148291
152.500000 -1.148291 -1.148291
152.550000 -1.148291 -1.148291
152.600000 -1.148291 -1.148291
152.650000 -1.148291 -1.148291
152.700000 -1.148291 -1.148291
152.750000 -1.148291 -1.148291
152.800000 -1.148291 -1.148291
152.850000 -1.148291 -1.148291
152.900000 -1.148291 -1.148291
152.950000 -1.148291 -1.148291
153.000000 -1.148291 -1.148291
153.050000 -1.148291 -1.148291
153.100000 -1.148291 -1.148291
153.150000 -1.148291 -1.148291
153.200000 -1.148291 -1.148291
153.250000 -1.148291 -1.148291
153.300000 -1.148291 -1.148291
153.350000 -1.148291 -1.148291
153.400000 -1.148291 -1.148291
153.450000 -1.148291 -1.148291
153.500000 -1.148291 -1.148291
153.550000 -1.148291 -1.148291
153.600000 -1.148291 -1.148291
153.650000 -1.148291 -1.148291
153.700000 -1.148291 -1.148291
153.750000 -1.148291 -1.148291
153.800000 -1.148291 -1.148291
153.850000 -1.148291 -1.148291
153.900000 -1.148291 -1.148291
153.950000 -1.148291 -1.148291
154.000000 -1.148291 -1.148291
154.050000 -1.148291 -1.148291
154.100000 -1.148291 -1.148291
154.150000 -1.148291 -1.148291
154.200000 -1.148291 -1.148291
154.250000 -1.148291 -1.148291
154.300000 -1.148291 -1.148291
154.350000 -1.148291 -1.148291
154.400000 -1.148291 -1.148291
154.450000 -1.148291 -1.148291
154.500000 -1.148291 -1.148291
154.550000 -1.148291 -1.148291
154.600000 -1.148291 -1.148291
154.650000 -1.148291 -1.148291
154.700000 -1.148291 -1.148291
154.750000 -1.148291 -1.148291
154.800000 -1.148291 -1.148291
154.850000 -1.148291 -1.148291
154.900000 -1.148291 -1.148291
154.950000 -1.148291 -1.148291
155.000000 -1.148291 -1.148291
155.050000 -1.148291 -1.148291
155.100000 -1.148291 -1.148291
155.150000 -1.148291 -1.148291
155.200000 -1.148291 -1.148291
155.250000 -1.148291 -1.148291
155.300000 -1.148291 -1.148291
155.350000 -1.148291 -1.148291
155.400000 -1.148291 -1.148291
155.450000 -1.148291 -1.148291
155.500000 -1.148291 -1.148291
155.550000 -1.148291 -1.148291
155.600000 -1.148291 -1.148291
155.650000 -1.148291 -1.148291
155.700000 -1.148291 -1.148291
155.750000 -1.148291 -1.148291
155.800000 -1.148291 -1.148291
155.850000 -1.148291 -1.148291
155.900000 -1.148291 -1.148291
155.950000 -1.148291 -1.148291
156.000000 -1.148291 -1.148291
156.050000 -1.148291 -1.148291
156.100000 -1.148291 -1.148291
156.150000 -1.148291 -1.148291
156.200000 -1.148291 -1.148291
156.250000 -1.148291 -1.148291
156.300000 -1.148291 -1.148291
156.350000 -1.148291 -1.148291
156.400000 -1.148291 -1.148291
156.450000 -1.148291 -1.148291
156.500000 -1.148291 -1.148291
156.550000 -1.148291 -1.148291
156.600000 -1.148291 -1.148291
156.650000 -1.148291 -1.148291
156.700000 -1.148291 -1.148291
156.750000 -1.148291 -1.148291
156.800000 -1.148291 -1.148291
156.850000 -1.148291 -1.148291
156.900000 -1.148291 -1.148291
156.950000 -1.148291 -1.148291
157.000000 -1.148291 -1.148291
157.050000 -1.148291 -1.148291
157.100000 -1.148291 -1.148291
157.150000 -1.148291 -1.148291
157.200000 -1.148291 -1.148291
157.250000 -1.148291 -1.148291
157.300000 -1.148291 -1.148291
157.350000 -1.148291 -1.148291
157.400000 -1.148291 -1.148291
157.450000 -1.148291 -1.148291
157.500000 -1.148291 -1.148291
157.550000 -1.148291 -1.148291
157.600000 -1.148291 -1.148291
157.650000 -1.148291 -1.148291
157.700000 -1.148291 -1.148291
157.750000 -1.148291 -1.148291
157.800000 -1.148291 -1.148291
157.850000 -1.148291 -1.148291
157.900000 -1.148291 -1.148291
157.950000 -1.148291 -1.148291
158.000000 -1.148291 -1.148291
158.050000 -1.148291 -1.148291
158.100000 -1.148291 -1.148291
158.150000 -1.148291 -1.148291
158.200000 -1.148291 -1.148291
158.250000 -1.148291 -1.148291
158.300000 -1.148291 -1.148291
158.350000 -1.148291 -1.148291
158.400000 -1.148291 -1.148291
158.450000 -1.148291 -1.148291
158.500000 -1.148291 -1.148291
158.550000 -1.148291 -1.148291
158.600000 -1.148291 -1.148291
158.650000 -1.148291 -1.148291
158.700000 -1.148291 -1.148291
158.750000 -1.148291 -1.148291
158.800000 -1.148291 -1.148291
158.850000 -1.148291 -1.148291
158.900000 -1.148291 -1.148291
158.950000 -1.148291 -1.148291
159.000000 -1.148291 -1.148291
159.050000 -1.148291 -1.148291
159.100000 -1.148291 -1.148291
159.150000 -1.148291 -1.148291
159.200000 -1.148291 -1.148291
159.250000 -1.148291 -1.148291
159.300000 -1.148291 -1.148291
159.350000 -1.148291 -1.148291
159.400000 -1.148291 -1.148291
159.450000 -1.148291 -1.148291
159.500000 -1.148291 -1.148291
159.550000 -1.148291 -1.148291
159.600000 -1.148291 -1.148291
159.650000 -1.148291 -1.148291
159.700000 -1.148291 -1.148291
159.750000 -1.148291 -1.148291
159.800000 -1.148291 -1.148291
159.850000 -1.148291 -1.148291
159.900000 -1.148291 -1.148291
159.950000 -1.148291 -1.148291
160.000000 -1.148291 -1.148291
160.050000 -1.148291 -1.148291
160.100000 -1.148291 -1.148291
160.150000 -1.148291 -1.148291
160.200000 -1.148291 -1.148291
160.250000 -1.148291 -1.148291
160.300000 -1.148291 -1.148291
160.350000 -1.148291 -1.148291
160.400000 -1.148291 -1.148291
160.450000 -1.148291 -1.148291
160.500000 -1.148291 -1.148291
160.550000 -1.148291 -1.148291
160.600000 -1.148291 -1.148291
160.650000 -1.148291 -1.148291
160.700000 -1.148291 -1.148291
160.750000 -1.148291 -1.148291
160.800000 -1.148291 -1.148291
160.850000 -1.148291 -1.148291
160.900000 -1.148291 -1.148291
160.950000 -1.148291 -1.148291
161.000000 -1.148291 -1.148291
161.050000 -1.148291 -1.148291
161.100000 -1.148291 -1.148291
161.150000 -1.148291 -1.148291
161.200000 -1.148291 -1.148291
161.250000 -1.148291 -1.148291
161.300000 -1.148291 -1.148291
161.350000 -1.148291 -1.148291
161.400000 -1.148291 -1.148291
161.450000 -1.148291 -1.148291
161.500000 -1.148291 -1.148291
161.550000 -1.148291 -1.148291
161.600000 -1.148291 -1.148291
161.650000 -1.148291 -1.148291
161.700000 -1.148291 -1.148291
161.750000 -1.148291 -1.148291
161.800000 -1.148291 -1.148291
161.850000 -1.148291 -1.148291
161.900000 -1.148291 -1.148291
161.950000 -1.148291 -1.148291
162.000000 -1.148291 -1.148291
162.050000 -1.148291 -1.148291
162.100000 -1.148291 -1.148291
162.150000 -1.148291 -1.148291
162.200000 -1.148291 -1.148291
162.250000 -1.148291 -1.148291
162.300000 -1.148291 -1.148291
162.350000 -1.148291 -1.148291
162.400000 -1.148291 -1.148291
162.450000 -1.148291 -1.148291
162.500000 -1.148291 -1.148291
162.550000 -1.148291 -1.148291
162.600000 -1.148291 -1.148291
162.650000 -1.148291 -1.148291
162.700000 -1.148291 -1.148291
162.750000 -1.148291 -1.148291
162.800000 -1.148291 -1.148291
162.850000 -1.148291 -1.148291
162.900000 -1.148291 -1.148291
162.950000 -1.148291 -1.148291
163.000000 -1.148291 -1.148291
163.050000 -1.148291 -1.148291
163.100000 -1.148291 -1.148291
163.150000 -1.148291 -1.148291
163.200000 -1.148291 -1.148291
163.250000 -1.148291 -1.148291
163.300000 -1.148291 -1.148291
163.350000 -1.148291 -1.148291
163.400000 -1.148291 -1.148291
163.450000 -1.148291 -1.148291
163.500000 -1.148291 -1.148291
163.550000 -1.148291 -1.148291
163.600000 -1.148291 -1.148291
163.650000 -1.148291 -1.148291
163.700000 -1.148291 -1.148291
163.750000 -1.148291 -1.148291
163.800000 -1.148291 -1.148291
163.850000 -1.148291 -1.148291
163.900000 -1.148291 -1.148291
163.950000 -1.148291 -1.148291
164.000000 -1.148291 -1.148291
164.050000 -1.148291 -1.148291
164.100000 -1.148291 -1.148291
164.150000 -1.148291 -1.148291
164.200000 -1.148291 -1.148291
164.250000 -1.148291 -1.148291
164.300000 -1.148291 -1.148291
164.350000 -1.148291 -1.148291
164.400000 -1.148291 -1.148291
164.450000 -1.148291 -1.148291
164.500000 -1.148291 -1.148291
164.550000 -1.148291 -1.148291
164.600000 -1.148291 -1.148291
164.650000 -1.148291 -1.148291
164.700000 -1.148291 -1.148291
164.750000 -1.148291 -1.148291
164.800000 -1.148291 -1.148291
164.850000 -1.148291 -1.148291
164.900000 -1.148291 -1.148291
164.950000 -1.148291 -1.148291
165.000000 -1.148291 -1.148291
165.050000 -1.148291 -1.148291
165.100000 -1.148291 -1.148291
165.150000 -1.148291 -1.148291
165.200000 -1.148291 -1.148291
165.250000 -1.148291 -1.148291
165.300000 -1.148291 -1.148291
165.350000 -1.148291 -1.148291
165.400000 -1.148291 -1.148291
165.450000 -1.148291 -1.148291
165.500000 -1.148291 -1.148291
165.550000 -1.148291 -1.148291
165.600000 -1.148291 -1.148291
165.650000 -1.148291 -1.148291
165.700000 -1.148291 -1.148291
165.750000 -1.148291 -1.148291
165.800000 -1.148291 -1.148291
165.850000 -1.148291 -1.148291
165.900000 -1.148291 -1.148291
165.950000 -1.148291 -1.148291
166.000000 -1.148291 -1.148291
166.050000 -1.148291 -1.148291
166.100000 -1.148291 -1.148291
166.150000 -1.148291 -1.148291
166.200000 -1.148291 -1.148291
166.250000 -1.148291 -1.148291
166.300000 -1.148291 -1.148291
166.350000 -1.148291 -1.148291
166.400000 -1.148291 -1.148291
166.450000 -1.148291 -1.148291
166.500000 -1.148291 -1.148291
166.550000 -1.148291 -1.148291
166.600000 -1.148291 -1.148291
166.650000 -1.148291 -1.148291
166.700000 -1.148291 -1.148291
166.750000 -1.148291 -1.148291
166.800000 -1.148291 -1.148291
166.850000 -1.148291 -1.148291
166.900000 -1.148291 -1.148291
166.950000 -1.148291 -1.148291
167.000000 -1.148291 -1.148291
167.050000 -1.148291 -1.148291
167.100000 -1.148291 -1.148291
167.150000 -1.148291 -1.148291
167.200000 -1.148291 -1.148291
167.250000 -1.148291 -1.148291
167.300000 -1.148291 -1.148291
167.350000 -1.148291 -1.148291
167.400000 -1.148291 -1.148291
167.450000 -1.148291 -1.148291
167.500000 -1.148291 -1.148291
167.550000 -1.148291 -1.148291
167.600000 -1.148291 -1.148291
167.650000 -1.148291 -1.148291
167.700000 -1.148291 -1.148291
167.750000 -1.148291 -1.148291
167.800000 -1.148291 -1.148291
167.850000 -1.148291 -1.148291
167.900000 -1.148291 -1.148291
167.950000 -1.148291 -1.148291
168.000000 -1.148291 -1.148291
168.050000 -1.148291 -1.148291
168.100000 -1.148291 -1.148291
168.150000 -1.148291 -1.148291
168.200000 -1.148291 -1.148291
168.250000 -1.148291 -1.148291
168.300000 -1.148291 -1.148291
168.350000 -1.148291 -1.148291
168.400000 -1.148291 -1.148291
168.450000 -1.148291 -1.148291
168.500000 -1.148291 -1.148291
168.550000 -1.148291 -1.148291
168.600000 -1.148291 -1.148291
168.650000 -1.148291 -1.148291
168.700000 -1.148291 -1.148291
168.750000 -1.148291 -1.148291
168.800000 -1.148291 -1.148291
168.850000 -1.148291 -1.148291
168.900000 -1.148291 -1.148291
168.950000 -1.148291 -1.148291
169.000000 -1.148291 -1.148291
169.050000 -1.148291 -1.148291
169.100000 -1.148291 -1.148291
169.150000 -1.148291 -1.148291
169.200000 -1.148291 -1.148291
169.250000 -1.148291 -1.148291
169.300000 -1.148291 -1.148291
169.350000 -1.148291 -1.148291
169.400000 -1.148291 -1.148291
169.450000 -1.148291 -1.148291
169.500000 -1.148291 -1.148291
169.550000 -1.148291 -1.148291
169.600000 -1.148291 -1.148291
169.650000 -1.148291 -1.148291
169.700000 -1.148291 -1.148291
169.750000 -1.148291 -1.148291
169.800000 -1.148291 -1.148291
169.850000 -1.148291 -1.148291
169.900000 -1.148291 -1.148291
169.950000 -1.148291 -1.148291
170.000000 -1.148291 -1.148291
170.050000 -1.148291 -1.148291
170.100000 -1.148291 -1.148291
170.150000 -1.148291 -1.148291
170.200000 -1.148291 -1.148291
170.250000 -1.148291 -1.148291
170.300000 -1.148291 -1.148291
170.350000 -1.148291 -1.148291
170.400000 -1.148291 -1.148291
170.450000 -1.148291 -1.148291
170.500000 -1.148291 -1.148291
170.550000 -1.148291 -1.148291
170.600000 -1.148291 -1.148291
170.650000 -1.148291 -1.148291
170.700000 -1.148291 -1.148291
170.750000 -1.148291 -1.148291
170.800000 -1.148291 -1.148291
170.850000 -1.148291 -1.148291
170.900000 -1.148291 -1.148291
170.950000 -1.148291 -1.148291
171.000000 -1.148291 -1.148291
171.050000 -1.148291 -1.148291
171.100000 -1.148291 -1.148291
171.150000 -1.148291 -1.148291
171.200000 -1.148291 -1.148291
171.250000 -1.148291 -1.148291
171.300000 -1.148291 -1.148291
171.350000 -1.148291 -1.148291
171.400000 -1.148291 -1.148291
171.450000 -1.148291 -1.148291
171.500000 -1.148291 -1.148291
171.550000 -1.148291 -1.148291
171.600000 -1.148291 -1.148291
171.650000 -1.148291 -1.148291
171.700000 -1.148291 -1.148291
171.750000 -1.148291 -1.148291
171.800000 -1.148291 -1.148291
171.850000 -1.148291 -1.148291
171.900000 -1.148291 -1.148291
171.950000 -1.148291 -1.148291
172.000000 -1.148291 -1.148291
172.050000 -1.148291 -1.148291
172.100000 -1.148291 -1.148291
172.150000 -1.148291 -1.148291
172.200000 -1.148291 -1.148291
172.250000 -1.148291 -1.148291
172.300000 -1.148291 -1.148291
172.350000 -1.148291 -1.148291
172.400000 -1.148291 -1.148291
172.450000 -1.148291 -1.148291
172.500000 -1.148291 -1.148291
172.550000 -1.148291 -1.148291
172.600000 -1.148291 -1.148291
172.650000 -1.148291 -1.148291
172.700000 -1.148291 -1.148291
172.750000 -1.148291 -1.148291
172.800000 -1.148291 -1.148291
172.850000 -1.148291 -1.148291
172.900000 -1.148291 -1.148291
172.950000 -1.148291 -1.148291
173.000000 -1.148291 -1.148291
173.050000 -1.148291 -1.148291
173.100000 -1.148291 -1.148291
173.150000 -1.148291 -1.148291
173.200000 -1.148291 -1.148291
173.250000 -1.148291 -1.148291
173.300000 -1.148291 -1.148291
173.350000 -1.148291 -1.148291
173.400000 -1.148291 -1.148291
173.450000 -1.148291 -1.148291
173.500000 -1.148291 -1.148291
173.550000 -1.148291 -1.148291
173.600000 -1.148291 -1.148291
173.650000 -1.148291 -1.148291
173.700000 -1.148291 -1.148291
173.750000 -1.148291 -1.148291
173.800000 -1.148291 -1.148291
173.850000 -1.148291 -1.148291
173.900000 -1.148291 -1.148291
173.950000 -1.148291 -1.148291
174.000000 -1.148291 -1.148291
174.050000 -1.148291 -1.148291
174.100000 -1.148291 -1.148291
174.150000 -1.148291 -1.148291
174.200000 -1.148291 -1.148291
174.250000 -1.148291 -1.148291
174.300000 -1.148291 -1.148291
174.350000 -1.148291 -1.148291
174.400000 -1.148291 -1.148291
174.450000 -1.148291 -1.148291
174.500000 -1.148291 -1.148291
174.550000 -1.148291 -1.148291
174.600000 -1.148291 -1.148291
174.650000 -1.148291 -1.148291
174.700000 -1.148291 -1.148291
174.750000 -1.148291 -1.148291
174.800000 -1.148291 -1.148291
174.850000 -1.148291 -1.148291
174.900000 -1.148291 -1.148291
174.950000 -1.148291 -1.148291
175.000000 -1.148291 -1.148291
175.050000 -1.148291 -1.148291
175.100000 -1.148291 -1.148291
175.150000 -1.148291 -1.148291
175.200000 -1.148291 -1.148291
175.250000 -1.148291 -1.148291
175.300000 -1.148291 -1.148291
175.350000 -1.148291 -1.148291
175.400000 -1.148291 -1.148291
175.450000 -1.148291 -1.148291
175.500000 -1.148291 -1.148291
175.550000 -1.148291 -1.148291
175.600000 -1.148291 -1.148291
175.650000 -1.148291 -1.148291
175.700000 -1.148291 -1.148291
175.750000 -1.148291 -1.148291
175.800000 -1.148291 -1.148291
175.850000 -1.148291 -1.148291
175.900000 -1.148291 -1.148291
175.950000 -1.148291 -1.148291
176.000000 -1.148291 -1.148291
176.050000 -1.148291 -1.148291
176.100000 -1.148291 -1.148291
176.150000 -1.148291 -1.148291
176.200000 -1.148291 -1.148291
176.250000 -1.148291 -1.148291
176.300000 -1.148291 -1.148291
176.350000 -1.148291 -1.148291
176.400000 -1.148291 -1.148291
176.450000 -1.148291 -1.148291
176.500000 -1.148291 -1.148291
176.550000 -1.148291 -1.148291
176.600000 -1.148291 -1.148291
176.650000 -1.148291 -1.148291
176.700000 -1.148291 -1.148291
176.750000 -1.148291 -1.148291
176.800000 -1.148291 -1.148291
176.850000 -1.148291 -1.148291
176.900000 -1.148291 -1.148291
176.950000 -1.148291 -1.148291
177.000000 -1.148291 -1.148291
177.050000 -1.148291 -1.148291
177.100000 -1.148291 -1.148291
177.150000 -1.148291 -1.148291
177.200000 -1.148291 -1.148291
177.250000 -1.148291 -1.148291
177.300000 -1.148291 -1.148291
177.350000 -1.148291 -1.148291
177.400000 -1.148291 -1.148291
177.450000 -1.148291 -1.148291
177.500000 -1.148291 -1.148291
177.550000 -1.148291 -1.148291
177.600000 -1.148291 -1.148291
177.650000 -1.148291 -1.148291
177.700000 -1.148291 -1.148291
177.750000 -1.148291 -1.148291
177.800000 -1.148291 -1.148291
177.850000 -1.148291 -1.148291
177.900000 -1.148291 -1.148291
177.950000 -1.148291 -1.148291
178.000000 -1.148291 -1.148291
178.050000 -1.148291 -1.148291
178.100000 -1.148291 -1.148291
178.150000 -1.148291 -1.148291
178.200000 -1.148291 -1.148291
178.250000 -1.148291 -1.148291
178.300000 -1.148291 -1.148291
178.350000 -1.148291 -1.148291
178.400000 -1.148291 -1.148291
178.450000 -1.148291 -1.148291
178.500000 -1.148291 -1.148291
178.550000 -1.148291 -1.148291
178.600000 -1.148291 -1.148291
178.650000 -1.148291 -1.148291
178.700000 -1.148291 -1.148291
178.750000 -1.148291 -1.148291
178.800000 -1.148291 -1.148291
178.850000 -1.148291 -1.148291
178.900000 -1.148291 -1.148291
178.950000 -1.148291 -1.148291
179.000000 -1.148291 -1.148291
179.050000 -1.148291 -1.148291
179.100000 -1.148291 -1.148291
179.150000 -1.148291 -1.148291
179.200000 -1.148291 -1.148291
179.250000 -1.148291 -1.148291
179.300000 -1.148291 -1.148291
179.350000 -1.148291 -1.148291
179.400000 -1.148291 -1.148291
179.450000 -1.148291 -1.148291
179.500000 -1.148291 -1.148291
179.550000 -1.148291 -1.148291
179.600000 -1.148291 -1.148291
179.650000 -1.148291 -1.148291
179.700000 -1.148291 -1.148291
179.750000 -1.148291 -1.148291
179.800000 -1.148291 -1.148291
179.850000 -1.148291 -1.148291
179.900000 -1.148291 -1.148291
179.950000 -1.148291 -1.148291
180.000000 -1.148291 -1.148291
180.050000 -1.148291 -1.148291
180.100000 -1.148291 -1.148291
180.150000 -1.148291 -1.148291
180.200000 -1.148291 -1.148291
180.250000 -1.148291 -1.148291
180.300000 -1.148291 -1.148291
180.350000 -1.148291 -1.148291
180.400000 -1.148291 -1.148291
180.450000 -1.148291 -1.148291
180.500000 -1.148291 -1.148291
180.550000 -1.148291 -1.148291
180.600000 -1.148291 -1.148291
180.650000 -1.148291 -1.148291
180.700000 -1.148291 -1.148291
180.750000 -1.148291 -1.148291
180.800000 -1.148291 -1.148291
180.850000 -1.148291 -1.148291
180.900000 -1.148291 -1.148291
180.950000 -1.148291 -1.148291
181.000000 -1.148291 -1.148291
181.050000 -1.148291 -1.148291
181.100000 -1.148291 -1.148291
181.150000 -1.148291 -1.148291
181.200000 -1.148291 -1.148291
181.250000 -1.148291 -1.148291
181.300000 -1.148291 -1.148291
181.350000 -1.148291 -1.148291
181.400000 -1.148291 -1.148291
181.450000 -1.148291 -1.148291
181.500000 -1.148291 -1.148291
181.550000 -1.148291 -1.148291
181.600000 -1.148291 -1.148291
181.650000 -1.148291 -1.148291
181.700000 -1.148291 -1.148291
181.750000 -1.148291 -1.148291
181.800000 -1.148291 -1.148291
181.850000 -1.148291 -1.148291
181.900000 -1.148291 -1.148291
181.950000 -1.148291 -1.148291
182.000000 -1.148291 -1.148291
182.050000 -1.148291 -1.148291
182.100000 -1.148291 -1.148291
182.150000 -1.148291 -1.148291
182.200000 -1.148291 -1.148291
182.250000 -1.148291 -1.148291
182.300000 -1.148291 -1.148291
182.350000 -1.148291 -1.148291
182.400000 -1.148291 -1.148291
182.450000 -1.148291 -1.148291
182.500000 -1.148291 -1.148291
182.550000 -1.148291 -1.148291
182.600000 -1.148291 -1.148291
182.650000 -1.148291 -1.148291
182.700000 -1.148291 -1.148291
182.750000 -1.148291 -1.148291
182.800000 -1.148291 -1.148291
182.850000 -1.148291 -1.148291
182.900000 -1.148291 -1.148291
182.950000 -1.148291 -1.148291
183.000000 -1.148291 -1.148291
183.050000 -1.148291 -1.148291
183.100000 -1.148291 -1.148291
183.150000 -1.148291 -1.148291
183.200000 -1.148291 -1.148291
183.250000 -1.148291 -1.148291
183.300000 -1.148291 -1.148291
183.350000 -1.148291 -1.148291
183.400000 -1.148291 -1.148291
183.450000 -1.148291 -1.148291
183.500000 -1.148291 -1.148291
183.550000 -1.148291 -1.148291
183.600000 -1.148291 -1.148291
183.650000 -1.148291 -1.148291
183.700000 -1.148291 -1.148291
183.750000 -1.148291 -1.148291
183.800000 -1.148291 -1.148291
183.850000 -1.148291 -1.148291
183.900000 -1.148291 -1.148291
183.950000 -1.148291 -1.148291
184.000000 -1.148291 -1.148291
184.050000 -1.148291 -1.148291
184.100000 -1.148291 -1.148291
184.150000 -1.148291 -1.148291
184.200000 -1.148291 -1.148291
184.250000 -1.148291 -1.148291
184.300000 -1.148291 -1.148291
184.350000 -1.148291 -1.148291
184.400000 -1.148291 -1.148291
184.450000 -1.148291 -1.148291
184.500000 -1.148291 -1.148291
184.550000 -1.148291 -1.148291
184.600000 -1.148291 -1.148291
184.650000 -1.148291 -1.148291
184.700000 -1.148291 -1.148291
184.750000 -1.148291 -1.148291
184.800000 -1.148291 -1.148291
184.850000 -1.148291 -1.148291
184.900000 -1.148291 -1.148291
184.950000 -1.148291 -1.148291
185.000000 -1.148291 -1.148291
185.050000 -1.148291 -1.148291
185.100000 -1.148291 -1.148291
185.150000 -1.148291 -1.148291
185.200000 -1.148291 -1.148291
185.250000 -1.148291 -1.148291
185.300000 -1.148291 -1.148291
185.350000 -1.148291 -1.148291
185.400000 -1.148291 -1.148291
185.450000 -1.148291 -1.148291
185.500000 -1.148291 -1.148291
185.550000 -1.148291 -1.148291
185.600000 -1.148291 -1.148291
185.650000 -1.148291 -1.148291
185.700000 -1.148291 -1.148291
185.750000 -1.148291 -1.148291
185.800000 -1.148291 -1.148291
185.850000 -1.148291 -1.148291
185.900000 -1.148291 -1.148291
185.950000 -1.148291 -1.148291
186.000000 -1.148291 -1.148291
186.050000 -1.148291 -1.148291
186.100000 -1.148291 -1.148291
186.150000 -1.148291 -1.148291
186.200000 -1.148291 -1.148291
186.250000 -1.148291 -1.148291
186.300000 -1.148291 -1.148291
186.350000 -1.148291 -1.148291
186.400000 -1.148291 -1.148291
186.450000 -1.148291 -1.148291
186.500000 -1.148291 -1.148291
186.550000 -1.148291 -1.148291
186.600000 -1.148291 -1.148291
186.650000 -1.148291 -1.148291
186.700000 -1.148291 -1.148291
186.750000 -1.148291 -1.148291
186.800000 -1.148291 -1.148291
186.850000 -1.148291 -1.148291
186.900000 -1.148291 -1.148291
