fit_time[ns] Functional_fit[mV] Thermal_fit[mV]
3.600000 40.049570 37.337399
3.650000 40.417712 36.663680
3.700000 40.683306 36.002125
3.750000 40.825153 35.352499
3.800000 40.825875 34.714571
3.850000 40.672266 34.088118
3.900000 40.355540 33.472918
3.950000 39.871453 32.868756
4.000000 39.220317 32.275421
4.050000 38.406897 31.692706
4.100000 37.440195 31.120409
4.150000 36.333140 30.558331
4.200000 35.102176 30.006278
4.250000 33.766780 29.464061
4.300000 32.348907 28.931493
4.350000 30.872385 28.408393
4.400000 29.362280 27.894580
4.450000 27.844234 27.389882
4.500000 26.343808 26.894126
4.550000 24.885843 26.407144
4.600000 23.493841 25.928773
4.650000 22.189402 25.458851
4.700000 20.991715 24.997220
4.750000 19.917124 24.543726
4.800000 18.978767 24.098218
4.850000 18.186306 23.660547
4.900000 17.545755 23.230567
4.950000 17.059392 22.808136
5.000000 16.725776 22.393115
5.050000 16.539852 21.985366
5.100000 16.493147 21.584756
5.150000 16.574044 21.191152
5.200000 16.768134 20.804427
5.250000 17.058631 20.424453
5.300000 17.426832 20.051106
5.350000 17.852623 19.684266
5.400000 18.315011 19.323813
5.450000 18.792657 18.969631
5.500000 19.264424 18.621604
5.550000 19.709892 18.279622
5.600000 20.109857 17.943573
5.650000 20.446783 17.613351
5.700000 20.705210 17.288849
5.750000 20.872091 16.969963
5.800000 20.937076 16.656592
5.850000 20.892709 16.348636
5.900000 20.734558 16.045998
5.950000 20.461266 15.748581
6.000000 20.074516 15.456291
6.050000 19.578932 15.169035
6.100000 18.981900 14.886725
6.150000 18.293323 14.609269
6.200000 17.525328 14.336583
6.250000 16.691910 14.068579
6.300000 15.808541 13.805174
6.350000 14.891758 13.546286
6.400000 13.958720 13.291834
6.450000 13.026761 13.041740
6.500000 12.112960 12.795924
6.550000 11.233704 12.554312
6.600000 10.404299 12.316829
6.650000 9.638601 12.083400
6.700000 8.948696 11.853954
6.750000 8.344631 11.628421
6.800000 7.834200 11.406731
6.850000 7.422795 11.188816
6.900000 7.113312 10.974610
6.950000 6.906128 10.764046
7.000000 6.799141 10.557061
7.050000 6.787867 10.353591
7.100000 6.865604 10.153575
7.150000 7.023635 9.956952
7.200000 7.251490 9.763661
7.250000 7.537239 9.573646
7.300000 7.867820 9.386847
7.350000 8.229385 9.203209
7.400000 8.607666 9.022677
7.450000 8.988333 8.845195
7.500000 9.357359 8.670711
7.550000 9.701359 8.499172
7.600000 10.007917 8.330527
7.650000 10.265870 8.164726
7.700000 10.465568 8.001718
7.750000 10.599082 7.841455
7.800000 10.660367 7.683890
7.850000 10.645373 7.528975
7.900000 10.552112 7.376665
7.950000 10.380659 7.226914
8.000000 10.133113 7.079678
8.050000 9.813502 6.934913
8.100000 9.427639 6.792576
8.150000 8.982947 6.652626
8.200000 8.488233 6.515021
8.250000 7.953443 6.379721
8.300000 7.389388 6.246685
8.350000 6.807456 6.115876
8.400000 6.219313 5.987253
8.450000 5.636602 5.860781
8.500000 5.070657 5.736421
8.550000 4.532216 5.614138
8.600000 4.031172 5.493895
8.650000 3.576331 5.375658
8.700000 3.175221 5.259392
8.750000 2.833920 5.145064
8.800000 2.556939 5.032640
8.850000 2.347132 4.922087
8.900000 2.205662 4.813374
8.950000 2.132003 4.706470
9.000000 2.123981 4.601342
9.050000 2.177871 4.497961
9.100000 2.288507 4.396297
9.150000 2.449452 4.296321
9.200000 2.653175 4.198003
9.250000 2.891263 4.101317
9.300000 3.154650 4.006233
9.350000 3.433857 3.912725
9.400000 3.719234 3.820765
9.450000 4.001206 3.730328
9.500000 4.270512 3.641388
9.550000 4.518429 3.553919
9.600000 4.736979 3.467896
9.650000 4.919115 3.383295
9.700000 5.058876 3.300092
9.750000 5.151519 3.218262
9.800000 5.193608 3.137784
9.850000 5.183076 3.058633
9.900000 5.119249 2.980787
9.950000 5.002834 2.904225
10.000000 4.835877 2.828925
10.050000 4.621677 2.754865
10.100000 4.364687 2.682024
10.150000 4.070372 2.610382
10.200000 3.745056 2.539920
10.250000 3.395742 2.470615
10.300000 3.029927 2.402451
10.350000 2.655401 2.335406
10.400000 2.280045 2.269463
10.450000 1.911634 2.204603
10.500000 1.557640 2.140807
10.550000 1.225054 2.078058
10.600000 0.920218 2.016339
10.650000 0.648678 1.955631
10.700000 0.415062 1.895918
10.750000 0.222981 1.837184
10.800000 0.074956 1.779412
10.850000 -0.027620 1.722585
10.900000 -0.084497 1.666689
10.950000 -0.096553 1.611707
11.000000 -0.065749 1.557624
11.050000 0.004943 1.504425
11.100000 0.111631 1.452096
11.150000 0.249619 1.400622
11.200000 0.413541 1.349988
11.250000 0.597511 1.300181
11.300000 0.795274 1.251187
11.350000 1.000376 1.202993
11.400000 1.206327 1.155584
11.450000 1.406762 1.108948
11.500000 1.595601 1.063072
11.550000 1.767194 1.017944
11.600000 1.916454 0.973551
11.650000 2.038971 0.929881
11.700000 2.131113 0.886921
11.750000 2.190098 0.844660
11.800000 2.214046 0.803087
11.850000 2.202013 0.762190
11.900000 2.153989 0.721958
11.950000 2.070884 0.682380
12.000000 1.954486 0.643444
12.050000 1.807398 0.605141
12.100000 1.632955 0.567460
12.150000 1.435129 0.530390
12.200000 1.218414 0.493922
12.250000 0.987702 0.458045
12.300000 0.748157 0.422751
12.350000 0.505072 0.388028
12.400000 0.263743 0.353868
12.450000 0.029329 0.320262
12.500000 -0.193274 0.287199
12.550000 -0.399548 0.254673
12.600000 -0.585458 0.222672
12.650000 -0.747550 0.191190
12.700000 -0.883021 0.160216
12.750000 -0.989776 0.129744
12.800000 -1.066471 0.099765
12.850000 -1.112530 0.070270
12.900000 -1.128140 0.041251
12.950000 -1.114241 0.012702
13.000000 -1.072479 -0.015387
13.050000 -1.005154 -0.043022
13.100000 -0.915151 -0.070211
13.150000 -0.805854 -0.096961
13.200000 -0.681053 -0.123279
13.250000 -0.544842 -0.149174
13.300000 -0.401507 -0.174650
13.350000 -0.255419 -0.199716
13.400000 -0.110920 -0.224378
13.450000 0.027783 -0.248643
13.500000 0.156723 -0.272517
13.550000 0.272264 -0.296006
13.600000 0.371188 -0.319117
13.650000 0.450768 -0.341857
13.700000 0.508823 -0.364230
13.750000 0.543766 -0.386244
13.800000 0.554627 -0.407903
13.850000 0.541071 -0.429215
13.900000 0.503386 -0.450183
13.950000 0.442472 -0.470815
14.000000 0.359798 -0.491116
14.050000 0.257361 -0.511090
14.100000 0.137618 -0.530743
14.150000 0.003423 -0.550081
14.200000 -0.142059 -0.569109
14.250000 -0.295434 -0.587831
14.300000 -0.453171 -0.606253
14.350000 -0.611690 -0.624380
14.400000 -0.767456 -0.642216
14.450000 -0.917067 -0.659766
14.500000 -1.057333 -0.677035
14.550000 -1.185356 -0.694027
14.600000 -1.298595 -0.710746
14.650000 -1.394923 -0.727198
14.700000 -1.472671 -0.743387
14.750000 -1.530664 -0.759316
14.800000 -1.568239 -0.774991
14.850000 -1.585249 -0.790415
14.900000 -1.582061 -0.805592
14.950000 -1.559535 -0.820526
15.000000 -1.518991 -0.835221
15.050000 -1.462169 -0.849682
15.100000 -1.391178 -0.863911
15.150000 -1.308433 -0.877913
15.200000 -1.216591 -0.891692
15.250000 -1.118478 -0.905250
15.300000 -1.017015 -0.918592
15.350000 -0.915146 -0.931720
15.400000 -0.815760 -0.944639
15.450000 -0.721622 -0.957352
15.500000 -0.635304 -0.969863
15.550000 -0.559128 -0.982173
15.600000 -0.495110 -0.994287
15.650000 -0.444917 -1.006209
15.700000 -0.409830 -1.017940
15.750000 -0.390723 -1.029484
15.800000 -0.388048 -1.040844
15.850000 -0.401829 -1.052023
15.900000 -0.431676 -1.063024
15.950000 -0.476797 -1.073850
16.000000 -0.536029 -1.084503
16.050000 -0.607876 -1.094987
16.100000 -0.690548 -1.105304
16.150000 -0.782018 -1.115457
16.200000 -0.880072 -1.125448
16.250000 -0.982374 -1.135281
16.300000 -1.086520 -1.144957
16.350000 -1.190106 -1.154479
16.400000 -1.290785 -1.163850
16.450000 -1.386326 -1.173072
16.500000 -1.474667 -1.182147
16.550000 -1.553964 -1.191078
16.600000 -1.622630 -1.199868
16.650000 -1.679377 -1.208517
16.700000 -1.723233 -1.217030
16.750000 -1.753568 -1.225407
16.800000 -1.770099 -1.233651
16.850000 -1.772890 -1.241765
16.900000 -1.762348 -1.249749
16.950000 -1.739199 -1.257607
17.000000 -1.704471 -1.265341
17.050000 -1.659455 -1.272951
17.100000 -1.605674 -1.280441
17.150000 -1.544837 -1.287813
17.200000 -1.478792 -1.295067
17.250000 -1.409480 -1.302207
17.300000 -1.338879 -1.309233
17.350000 -1.268962 -1.316148
17.400000 -1.201639 -1.322954
17.450000 -1.138716 -1.329652
17.500000 -1.081851 -1.336244
17.550000 -1.032514 -1.342731
17.600000 -0.991953 -1.349116
17.650000 -0.961173 -1.355399
17.700000 -0.940906 -1.361584
17.750000 -0.931609 -1.367670
17.800000 -0.933448 -1.373660
17.850000 -0.946307 -1.379556
17.900000 -0.969793 -1.385358
17.950000 -1.003251 -1.391069
18.000000 -1.045789 -1.396689
18.050000 -1.096302 -1.402221
18.100000 -1.153503 -1.407665
18.150000 -1.215962 -1.413023
18.200000 -1.282146 -1.418296
18.250000 -1.350451 -1.423486
18.300000 -1.419256 -1.428595
18.350000 -1.486953 -1.433622
18.400000 -1.551993 -1.438570
18.450000 -1.612922 -1.443441
18.500000 -1.668417 -1.448234
18.550000 -1.717314 -1.452951
18.600000 -1.758637 -1.457595
18.650000 -1.791616 -1.462165
18.700000 -1.815703 -1.466663
18.750000 -1.830585 -1.471090
18.800000 -1.836180 -1.475447
18.850000 -1.832641 -1.479735
18.900000 -1.820345 -1.483956
18.950000 -1.799880 -1.488111
19.000000 -1.772023 -1.492200
19.050000 -1.737722 -1.496224
19.100000 -1.698064 -1.500186
19.150000 -1.654248 -1.504084
19.200000 -1.607552 -1.507922
19.250000 -1.559299 -1.511699
19.300000 -1.510825 -1.515416
19.350000 -1.463440 -1.519075
19.400000 -1.418403 -1.522677
19.450000 -1.376886 -1.526222
19.500000 -1.339947 -1.529711
19.550000 -1.308510 -1.533145
19.600000 -1.283339 -1.536525
19.650000 -1.265026 -1.539852
19.700000 -1.253976 -1.543127
19.750000 -1.250405 -1.546350
19.800000 -1.254335 -1.549523
19.850000 -1.265598 -1.552645
19.900000 -1.283844 -1.555719
19.950000 -1.308555 -1.558744
20.000000 -1.339059 -1.561722
20.050000 -1.374552 -1.564653
20.100000 -1.414118 -1.567538
20.150000 -1.456758 -1.570378
20.200000 -1.501412 -1.573173
20.250000 -1.546992 -1.575925
20.300000 -1.592406 -1.578633
20.350000 -1.636586 -1.581298
20.400000 -1.678517 -1.583922
20.450000 -1.717258 -1.586505
20.500000 -1.751966 -1.589047
20.550000 -1.781914 -1.591549
20.600000 -1.806508 -1.594012
20.650000 -1.825300 -1.596436
20.700000 -1.837994 -1.598823
20.750000 -1.844453 -1.601172
20.800000 -1.844696 -1.603484
20.850000 -1.838899 -1.605760
20.900000 -1.827384 -1.608000
20.950000 -1.810607 -1.610205
21.000000 -1.789150 -1.612375
21.050000 -1.763696 -1.614512
21.100000 -1.735016 -1.616615
21.150000 -1.703946 -1.618685
21.200000 -1.671363 -1.620723
21.250000 -1.638164 -1.622729
21.300000 -1.605244 -1.624703
21.350000 -1.573472 -1.626647
21.400000 -1.543670 -1.628560
21.450000 -1.516593 -1.630443
21.500000 -1.492913 -1.632297
21.550000 -1.473203 -1.634122
21.600000 -1.457924 -1.635918
21.650000 -1.447416 -1.637686
21.700000 -1.441892 -1.639427
21.750000 -1.441434 -1.641140
21.800000 -1.445998 -1.642826
21.850000 -1.455411 -1.644486
21.900000 -1.469384 -1.646121
21.950000 -1.487516 -1.647729
22.000000 -1.509310 -1.649313
22.050000 -1.534189 -1.650871
22.100000 -1.561505 -1.652406
22.150000 -1.590565 -1.653916
22.200000 -1.620644 -1.655403
22.250000 -1.651004 -1.656867
22.300000 -1.680917 -1.658307
22.350000 -1.709676 -1.659726
22.400000 -1.736620 -1.661122
22.450000 -1.761144 -1.662496
22.500000 -1.782716 -1.663849
22.550000 -1.800888 -1.665181
22.600000 -1.815305 -1.666492
22.650000 -1.825712 -1.667782
22.700000 -1.831960 -1.669052
22.750000 -1.834007 -1.670303
22.800000 -1.831917 -1.671534
22.850000 -1.825853 -1.672746
22.900000 -1.816078 -1.673939
22.950000 -1.802939 -1.675113
23.000000 -1.786861 -1.676269
23.050000 -1.768336 -1.677407
23.100000 -1.747903 -1.678528
23.150000 -1.726140 -1.679631
23.200000 -1.703648 -1.680716
23.250000 -1.681031 -1.681785
23.300000 -1.658885 -1.682837
23.350000 -1.637783 -1.683873
23.400000 -1.618257 -1.684892
23.450000 -1.600793 -1.685896
23.500000 -1.585812 -1.686884
23.550000 -1.573664 -1.687857
23.600000 -1.564623 -1.688814
23.650000 -1.558877 -1.689757
23.700000 -1.556529 -1.690685
23.750000 -1.557594 -1.691598
23.800000 -1.562000 -1.692497
23.850000 -1.569592 -1.693383
23.900000 -1.580141 -1.694254
23.950000 -1.593344 -1.695112
24.000000 -1.608840 -1.695957
24.050000 -1.626216 -1.696788
24.100000 -1.645020 -1.697607
24.150000 -1.664773 -1.698413
24.200000 -1.684982 -1.699206
24.250000 -1.705150 -1.699987
24.300000 -1.724793 -1.700756
24.350000 -1.743447 -1.701512
24.400000 -1.760685 -1.702258
24.450000 -1.776120 -1.702991
24.500000 -1.789420 -1.703713
24.550000 -1.800311 -1.704424
24.600000 -1.808587 -1.705124
24.650000 -1.814109 -1.705813
24.700000 -1.816811 -1.706491
24.750000 -1.816697 -1.707159
24.800000 -1.813843 -1.707816
24.850000 -1.808392 -1.708463
24.900000 -1.800546 -1.709100
24.950000 -1.790567 -1.709728
25.000000 -1.778763 -1.710345
25.050000 -1.765480 -1.710953
25.100000 -1.751096 -1.711551
25.150000 -1.736008 -1.712141
25.200000 -1.720624 -1.712721
25.250000 -1.705348 -1.713292
25.300000 -1.690577 -1.713854
25.350000 -1.676684 -1.714407
25.400000 -1.664014 -1.714952
25.450000 -1.652873 -1.715488
25.500000 -1.643525 -1.716016
25.550000 -1.636181 -1.716536
25.600000 -1.630998 -1.717048
25.650000 -1.628077 -1.717552
25.700000 -1.627458 -1.718048
25.750000 -1.629123 -1.718536
25.800000 -1.632999 -1.719017
25.850000 -1.638956 -1.719491
25.900000 -1.646815 -1.719957
25.950000 -1.656354 -1.720415
26.000000 -1.667311 -1.720867
26.050000 -1.679395 -1.721312
26.100000 -1.692293 -1.721750
26.150000 -1.705675 -1.722181
26.200000 -1.719208 -1.722605
26.250000 -1.732559 -1.723023
26.300000 -1.745409 -1.723434
26.350000 -1.757456 -1.723839
26.400000 -1.768424 -1.724238
26.450000 -1.778068 -1.724630
26.500000 -1.786185 -1.725017
26.550000 -1.792609 -1.725397
26.600000 -1.797223 -1.725772
26.650000 -1.799957 -1.726140
26.700000 -1.800788 -1.726503
26.750000 -1.799743 -1.726861
26.800000 -1.796893 -1.727213
26.850000 -1.792355 -1.727559
26.900000 -1.786285 -1.727900
26.950000 -1.778873 -1.728236
27.000000 -1.770340 -1.728567
27.050000 -1.760931 -1.728892
27.100000 -1.750906 -1.729212
27.150000 -1.740538 -1.729528
27.200000 -1.730100 -1.729839
27.250000 -1.719864 -1.730144
27.300000 -1.710090 -1.730446
27.350000 -1.701020 -1.730742
27.400000 -1.692877 -1.731034
27.450000 -1.685852 -1.731321
27.500000 -1.680107 -1.731604
27.550000 -1.675767 -1.731883
27.600000 -1.672921 -1.732157
27.650000 -1.671617 -1.732427
27.700000 -1.671865 -1.732693
27.750000 -1.673632 -1.732954
27.800000 -1.676853 -1.733212
27.850000 -1.681423 -1.733466
27.900000 -1.687209 -1.733715
27.950000 -1.694046 -1.733961
28.000000 -1.701749 -1.734204
28.050000 -1.710115 -1.734442
28.100000 -1.718925 -1.734677
28.150000 -1.727956 -1.734908
28.200000 -1.736984 -1.735135
28.250000 -1.745788 -1.735359
28.300000 -1.754158 -1.735580
28.350000 -1.761896 -1.735797
28.400000 -1.768829 -1.736011
28.450000 -1.774802 -1.736221
28.500000 -1.779692 -1.736428
28.550000 -1.783401 -1.736632
28.600000 -1.785866 -1.736833
28.650000 -1.787053 -1.737031
28.700000 -1.786965 -1.737226
28.750000 -1.785633 -1.737418
28.800000 -1.783119 -1.737606
28.850000 -1.779515 -1.737792
28.900000 -1.774938 -1.737975
28.950000 -1.769527 -1.738155
29.000000 -1.763436 -1.738333
29.050000 -1.756838 -1.738507
29.100000 -1.749912 -1.738679
29.150000 -1.742843 -1.738849
29.200000 -1.735814 -1.739015
29.250000 -1.729005 -1.739180
29.300000 -1.722587 -1.739341
29.350000 -1.716716 -1.739500
29.400000 -1.711534 -1.739657
29.450000 -1.707159 -1.739811
29.500000 -1.703690 -1.739963
29.550000 -1.701200 -1.740113
29.600000 -1.699734 -1.740260
29.650000 -1.699314 -1.740405
29.700000 -1.699933 -1.740547
29.750000 -1.701558 -1.740688
29.800000 -1.704132 -1.740826
29.850000 -1.707575 -1.740963
29.900000 -1.711788 -1.741097
29.950000 -1.716652 -1.741229
30.000000 -1.722036 -1.741359
30.050000 -1.727799 -1.741487
30.100000 -1.733791 -1.741613
30.150000 -1.739861 -1.741737
30.200000 -1.745858 -1.741859
30.250000 -1.751637 -1.741980
30.300000 -1.757060 -1.742098
30.350000 -1.762001 -1.742215
30.400000 -1.766349 -1.742330
30.450000 -1.770010 -1.742443
30.500000 -1.772907 -1.742554
30.550000 -1.774987 -1.742664
30.600000 -1.776217 -1.742772
30.650000 -1.776584 -1.742878
30.700000 -1.776099 -1.742983
30.750000 -1.774795 -1.743086
30.800000 -1.772722 -1.743187
30.850000 -1.769951 -1.743287
30.900000 -1.766567 -1.743385
30.950000 -1.762669 -1.743482
31.000000 -1.758368 -1.743578
31.050000 -1.753782 -1.743672
31.100000 -1.749034 -1.743764
31.150000 -1.744248 -1.743855
31.200000 -1.739547 -1.743945
31.250000 -1.735050 -1.744033
31.300000 -1.730868 -1.744120
31.350000 -1.727101 -1.744205
31.400000 -1.723838 -1.744290
31.450000 -1.721152 -1.744373
31.500000 -1.719101 -1.744454
31.550000 -1.717727 -1.744535
31.600000 -1.717053 -1.744614
31.650000 -1.717083 -1.744692
31.700000 -1.717804 -1.744769
31.750000 -1.719188 -1.744844
31.800000 -1.721187 -1.744919
31.850000 -1.723742 -1.744992
31.900000 -1.726779 -1.745064
31.950000 -1.730214 -1.745135
32.000000 -1.733956 -1.745205
32.050000 -1.737906 -1.745274
32.100000 -1.741963 -1.745342
32.150000 -1.746024 -1.745409
32.200000 -1.749990 -1.745475
32.250000 -1.753764 -1.745539
32.300000 -1.757258 -1.745603
32.350000 -1.760391 -1.745666
32.400000 -1.763093 -1.745728
32.450000 -1.765306 -1.745789
32.500000 -1.766987 -1.745849
32.550000 -1.768105 -1.745908
32.600000 -1.768645 -1.745966
32.650000 -1.768607 -1.746023
32.700000 -1.768003 -1.746079
32.750000 -1.766862 -1.746135
32.800000 -1.765224 -1.746189
32.850000 -1.763142 -1.746243
32.900000 -1.760678 -1.746296
32.950000 -1.757902 -1.746348
33.000000 -1.754893 -1.746400
33.050000 -1.751730 -1.746450
33.100000 -1.748497 -1.746500
33.150000 -1.745279 -1.746549
33.200000 -1.742157 -1.746597
33.250000 -1.739208 -1.746645
33.300000 -1.736504 -1.746692
33.350000 -1.734109 -1.746738
33.400000 -1.732078 -1.746783
33.450000 -1.730456 -1.746828
33.500000 -1.729277 -1.746872
33.550000 -1.728562 -1.746915
33.600000 -1.728321 -1.746958
33.650000 -1.728553 -1.747000
33.700000 -1.729242 -1.747041
33.750000 -1.730364 -1.747082
33.800000 -1.731883 -1.747122
33.850000 -1.733754 -1.747161
33.900000 -1.735924 -1.747200
33.950000 -1.738334 -1.747239
34.000000 -1.740920 -1.747276
34.050000 -1.743614 -1.747313
34.100000 -1.746347 -1.747350
34.150000 -1.749051 -1.747386
34.200000 -1.751661 -1.747421
34.250000 -1.754112 -1.747456
34.300000 -1.756349 -1.747491
34.350000 -1.758319 -1.747525
34.400000 -1.759980 -1.747558
34.450000 -1.761297 -1.747591
34.500000 -1.762244 -1.747623
34.550000 -1.762807 -1.747655
34.600000 -1.762979 -1.747686
34.650000 -1.762764 -1.747717
34.700000 -1.762176 -1.747747
34.750000 -1.761239 -1.747777
34.800000 -1.759983 -1.747807
34.850000 -1.758447 -1.747836
34.900000 -1.756675 -1.747864
34.950000 -1.754718 -1.747893
35.000000 -1.752629 -1.747920
35.050000 -1.750463 -1.747948
35.100000 -1.748277 -1.747974
35.150000 -1.746127 -1.748001
35.200000 -1.744067 -1.748027
35.250000 -1.742146 -1.748052
35.300000 -1.740412 -1.748078
35.350000 -1.738905 -1.748103
35.400000 -1.737658 -1.748127
35.450000 -1.736698 -1.748151
35.500000 -1.736044 -1.748175
35.550000 -1.735708 -1.748198
35.600000 -1.735691 -1.748221
35.650000 -1.735988 -1.748244
35.700000 -1.736587 -1.748266
35.750000 -1.737467 -1.748288
35.800000 -1.738601 -1.748310
35.850000 -1.739956 -1.748331
35.900000 -1.741494 -1.748352
35.950000 -1.743173 -1.748373
36.000000 -1.744950 -1.748393
36.050000 -1.746778 -1.748413
36.100000 -1.748610 -1.748433
36.150000 -1.750402 -1.748452
36.200000 -1.752110 -1.748472
36.250000 -1.753693 -1.748490
36.300000 -1.755114 -1.748509
36.350000 -1.756342 -1.748527
36.400000 -1.757349 -1.748545
36.450000 -1.758116 -1.748563
36.500000 -1.758629 -1.748580
36.550000 -1.758880 -1.748598
36.600000 -1.758868 -1.748614
36.650000 -1.758599 -1.748631
36.700000 -1.758086 -1.748648
36.750000 -1.757347 -1.748664
36.800000 -1.756404 -1.748680
36.850000 -1.755287 -1.748695
36.900000 -1.754027 -1.748711
36.950000 -1.752659 -1.748726
37.000000 -1.751219 -1.748741
37.050000 -1.749746 -1.748756
37.100000 -1.748277 -1.748770
37.150000 -1.746850 -1.748784
37.200000 -1.745499 -1.748798
37.250000 -1.744258 -1.748812
37.300000 -1.743156 -1.748826
37.350000 -1.742218 -1.748839
37.400000 -1.741464 -1.748853
37.450000 -1.740910 -1.748866
37.500000 -1.740567 -1.748878
37.550000 -1.740439 -1.748891
37.600000 -1.740526 -1.748903
37.650000 -1.740820 -1.748916
37.700000 -1.741312 -1.748928
37.750000 -1.741985 -1.748940
37.800000 -1.742819 -1.748951
37.850000 -1.743790 -1.748963
37.900000 -1.744872 -1.748974
37.950000 -1.746035 -1.748985
38.000000 -1.747249 -1.748996
38.050000 -1.748483 -1.749007
38.100000 -1.749706 -1.749018
38.150000 -1.750887 -1.749028
38.200000 -1.751998 -1.749039
38.250000 -1.753013 -1.749049
38.300000 -1.753909 -1.749059
38.350000 -1.754666 -1.749069
38.400000 -1.755267 -1.749078
38.450000 -1.755701 -1.749088
38.500000 -1.755961 -1.749097
38.550000 -1.756044 -1.749107
38.600000 -1.755952 -1.749116
38.650000 -1.755690 -1.749125
38.700000 -1.755269 -1.749134
38.750000 -1.754702 -1.749143
38.800000 -1.754007 -1.749151
38.850000 -1.753205 -1.749160
38.900000 -1.752317 -1.749168
38.950000 -1.751367 -1.749176
39.000000 -1.750382 -1.749184
39.050000 -1.749386 -1.749192
39.100000 -1.748405 -1.749200
39.150000 -1.747463 -1.749208
39.200000 -1.746584 -1.749215
39.250000 -1.745788 -1.749223
39.300000 -1.745094 -1.749230
39.350000 -1.744518 -1.749237
39.400000 -1.744071 -1.749245
39.450000 -1.743763 -1.749252
39.500000 -1.743598 -1.749259
39.550000 -1.743579 -1.749265
39.600000 -1.743702 -1.749272
39.650000 -1.743963 -1.749279
39.700000 -1.744352 -1.749285
39.750000 -1.744857 -1.749292
39.800000 -1.745463 -1.749298
39.850000 -1.746153 -1.749304
39.900000 -1.746908 -1.749310
39.950000 -1.747709 -1.749316
40.000000 -1.748534 -1.749322
40.050000 -1.749363 -1.749328
40.100000 -1.750174 -1.749334
40.150000 -1.750948 -1.749340
40.200000 -1.751667 -1.749345
40.250000 -1.752313 -1.749351
40.300000 -1.752872 -1.749356
40.350000 -1.753333 -1.749362
40.400000 -1.753684 -1.749367
40.450000 -1.753920 -1.749372
40.500000 -1.754038 -1.749377
40.550000 -1.754037 -1.749382
40.600000 -1.753919 -1.749387
40.650000 -1.753690 -1.749392
40.700000 -1.753357 -1.749397
40.750000 -1.752932 -1.749402
40.800000 -1.752427 -1.749406
40.850000 -1.751856 -1.749411
40.900000 -1.751236 -1.749415
40.950000 -1.750582 -1.749420
41.000000 -1.749912 -1.749424
41.050000 -1.749242 -1.749428
41.100000 -1.748591 -1.749433
41.150000 -1.747974 -1.749437
41.200000 -1.747406 -1.749441
41.250000 -1.746900 -1.749445
41.300000 -1.746468 -1.749449
41.350000 -1.746119 -1.749453
41.400000 -1.745860 -1.749457
41.450000 -1.745697 -1.749461
41.500000 -1.745632 -1.749464
41.550000 -1.745663 -1.749468
41.600000 -1.745790 -1.749472
41.650000 -1.746006 -1.749475
41.700000 -1.746305 -1.749479
41.750000 -1.746678 -1.749482
41.800000 -1.747113 -1.749486
41.850000 -1.747600 -1.749489
41.900000 -1.748124 -1.749492
41.950000 -1.748672 -1.749496
42.000000 -1.749230 -1.749499
42.050000 -1.749783 -1.749502
42.100000 -1.750319 -1.749505
42.150000 -1.750824 -1.749508
42.200000 -1.751285 -1.749511
42.250000 -1.751693 -1.749514
42.300000 -1.752039 -1.749517
42.350000 -1.752314 -1.749520
42.400000 -1.752514 -1.749523
42.450000 -1.752635 -1.749526
42.500000 -1.752676 -1.749529
42.550000 -1.752637 -1.749531
42.600000 -1.752521 -1.749534
42.650000 -1.752332 -1.749537
42.700000 -1.752077 -1.749539
42.750000 -1.751764 -1.749542
42.800000 -1.751401 -1.749544
42.850000 -1.750999 -1.749547
42.900000 -1.750568 -1.749549
42.950000 -1.750121 -1.749552
43.000000 -1.749668 -1.749554
43.050000 -1.749221 -1.749556
43.100000 -1.748791 -1.749559
43.150000 -1.748389 -1.749561
43.200000 -1.748025 -1.749563
43.250000 -1.747706 -1.749565
43.300000 -1.747440 -1.749567
43.350000 -1.747233 -1.749570
43.400000 -1.747088 -1.749572
43.450000 -1.747009 -1.749574
43.500000 -1.746995 -1.749576
43.550000 -1.747047 -1.749578
43.600000 -1.747161 -1.749580
43.650000 -1.747333 -1.749582
43.700000 -1.747558 -1.749584
43.750000 -1.747829 -1.749586
43.800000 -1.748139 -1.749587
43.850000 -1.748480 -1.749589
43.900000 -1.748841 -1.749591
43.950000 -1.749214 -1.749593
44.000000 -1.749589 -1.749595
44.050000 -1.749957 -1.749596
44.100000 -1.750308 -1.749598
44.150000 -1.750635 -1.749600
44.200000 -1.750930 -1.749601
44.250000 -1.751185 -1.749603
44.300000 -1.751395 -1.749604
44.350000 -1.751557 -1.749606
44.400000 -1.751666 -1.749608
44.450000 -1.751722 -1.749609
44.500000 -1.751723 -1.749611
44.550000 -1.751672 -1.749612
44.600000 -1.751570 -1.749614
44.650000 -1.751421 -1.749615
44.700000 -1.751230 -1.749616
44.750000 -1.751002 -1.749618
44.800000 -1.750744 -1.749619
44.850000 -1.750463 -1.749620
44.900000 -1.750166 -1.749622
44.950000 -1.749862 -1.749623
45.000000 -1.749557 -1.749624
45.050000 -1.749260 -1.749626
45.100000 -1.748979 -1.749627
45.150000 -1.748719 -1.749628
45.200000 -1.748487 -1.749629
45.250000 -1.748288 -1.749631
45.300000 -1.748127 -1.749632
45.350000 -1.748007 -1.749633
45.400000 -1.747930 -1.749634
45.450000 -1.747897 -1.749635
45.500000 -1.747909 -1.749636
45.550000 -1.747963 -1.749637
45.600000 -1.748058 -1.749638
45.650000 -1.748191 -1.749639
45.700000 -1.748358 -1.749640
45.750000 -1.748554 -1.749642
45.800000 -1.748773 -1.749643
45.850000 -1.749009 -1.749644
45.900000 -1.749257 -1.749644
45.950000 -1.749509 -1.749645
46.000000 -1.749760 -1.749646
46.050000 -1.750003 -1.749647
46.100000 -1.750232 -1.749648
46.150000 -1.750443 -1.749649
46.200000 -1.750629 -1.749650
46.250000 -1.750787 -1.749651
46.300000 -1.750913 -1.749652
46.350000 -1.751005 -1.749653
46.400000 -1.751062 -1.749653
46.450000 -1.751082 -1.749654
46.500000 -1.751066 -1.749655
46.550000 -1.751015 -1.749656
46.600000 -1.750930 -1.749657
46.650000 -1.750816 -1.749657
46.700000 -1.750675 -1.749658
46.750000 -1.750511 -1.749659
46.800000 -1.750329 -1.749660
46.850000 -1.750134 -1.749660
46.900000 -1.749931 -1.749661
46.950000 -1.749725 -1.749662
47.000000 -1.749522 -1.749663
47.050000 -1.749326 -1.749663
47.100000 -1.749142 -1.749664
47.150000 -1.748976 -1.749665
47.200000 -1.748830 -1.749665
47.250000 -1.748707 -1.749666
47.300000 -1.748611 -1.749667
47.350000 -1.748544 -1.749667
47.400000 -1.748506 -1.749668
47.450000 -1.748498 -1.749668
47.500000 -1.748519 -1.749669
47.550000 -1.748569 -1.749670
47.600000 -1.748645 -1.749670
47.650000 -1.748746 -1.749671
47.700000 -1.748867 -1.749671
47.750000 -1.749007 -1.749672
47.800000 -1.749160 -1.749672
47.850000 -1.749323 -1.749673
47.900000 -1.749492 -1.749674
47.950000 -1.749662 -1.749674
48.000000 -1.749829 -1.749675
48.050000 -1.749989 -1.749675
48.100000 -1.750137 -1.749676
48.150000 -1.750271 -1.749676
48.200000 -1.750388 -1.749677
48.250000 -1.750485 -1.749677
48.300000 -1.750559 -1.749677
48.350000 -1.750610 -1.749678
48.400000 -1.750636 -1.749678
48.450000 -1.750638 -1.749679
48.500000 -1.750616 -1.749679
48.550000 -1.750570 -1.749680
48.600000 -1.750504 -1.749680
48.650000 -1.750418 -1.749681
48.700000 -1.750315 -1.749681
48.750000 -1.750199 -1.749681
48.800000 -1.750071 -1.749682
48.850000 -1.749937 -1.749682
48.900000 -1.749799 -1.749683
48.950000 -1.749660 -1.749683
49.000000 -1.749525 -1.749683
49.050000 -1.749397 -1.749684
49.100000 -1.749278 -1.749684
49.150000 -1.749172 -1.749684
49.200000 -1.749081 -1.749685
49.250000 -1.749006 -1.749685
49.300000 -1.748951 -1.749686
49.350000 -1.748914 -1.749686
49.400000 -1.748898 -1.749686
49.450000 -1.748902 -1.749687
49.500000 -1.748926 -1.749687
49.550000 -1.748968 -1.749687
49.600000 -1.749027 -1.749687
49.650000 -1.749102 -1.749688
49.700000 -1.749189 -1.749688
49.750000 -1.749288 -1.749688
49.800000 -1.749395 -1.749689
49.850000 -1.749507 -1.749689
49.900000 -1.749621 -1.749689
49.950000 -1.749735 -1.749690
50.000000 -1.749845 -1.749690
50.050000 -1.749949 -1.749690
50.100000 -1.750045 -1.749690
50.150000 -1.750130 -1.749691
50.200000 -1.750202 -1.749691
50.250000 -1.750260 -1.749691
50.300000 -1.750303 -1.749691
50.350000 -1.750329 -1.749692
50.400000 -1.750339 -1.749692
50.450000 -1.750333 -1.749692
50.500000 -1.750310 -1.749692
50.550000 -1.750273 -1.749693
50.600000 -1.750222 -1.749693
50.650000 -1.750158 -1.749693
50.700000 -1.750084 -1.749693
50.750000 -1.750002 -1.749694
50.800000 -1.749914 -1.749694
50.850000 -1.749822 -1.749694
50.900000 -1.749728 -1.749694
50.950000 -1.749636 -1.749694
51.000000 -1.749546 -1.749695
51.050000 -1.749463 -1.749695
51.100000 -1.749387 -1.749695
51.150000 -1.749320 -1.749695
51.200000 -1.749263 -1.749695
51.250000 -1.749219 -1.749696
51.300000 -1.749188 -1.749696
51.350000 -1.749169 -1.749696
51.400000 -1.749165 -1.749696
51.450000 -1.749174 -1.749696
51.500000 -1.749196 -1.749697
51.550000 -1.749229 -1.749697
51.600000 -1.749274 -1.749697
51.650000 -1.749329 -1.749697
51.700000 -1.749392 -1.749697
51.750000 -1.749461 -1.749697
51.800000 -1.749535 -1.749698
51.850000 -1.749611 -1.749698
51.900000 -1.749688 -1.749698
51.950000 -1.749764 -1.749698
52.000000 -1.749836 -1.749698
52.050000 -1.749904 -1.749698
52.100000 -1.749965 -1.749698
52.150000 -1.750019 -1.749699
52.200000 -1.750063 -1.749699
52.250000 -1.750097 -1.749699
52.300000 -1.750121 -1.749699
52.350000 -1.750133 -1.749699
52.400000 -1.750135 -1.749699
52.450000 -1.750125 -1.749699
52.500000 -1.750105 -1.749700
52.550000 -1.750075 -1.749700
52.600000 -1.750037 -1.749700
52.650000 -1.749990 -1.749700
52.700000 -1.749938 -1.749700
52.750000 -1.749880 -1.749700
52.800000 -1.749819 -1.749700
52.850000 -1.749757 -1.749700
52.900000 -1.749694 -1.749701
52.950000 -1.749632 -1.749701
53.000000 -1.749574 -1.749701
53.050000 -1.749520 -1.749701
53.100000 -1.749471 -1.749701
53.150000 -1.749429 -1.749701
53.200000 -1.749395 -1.749701
53.250000 -1.749369 -1.749701
53.300000 -1.749352 -1.749701
53.350000 -1.749344 -1.749701
53.400000 -1.749345 -1.749702
53.450000 -1.749356 -1.749702
53.500000 -1.749374 -1.749702
53.550000 -1.749401 -1.749702
53.600000 -1.749434 -1.749702
53.650000 -1.749473 -1.749702
53.700000 -1.749518 -1.749702
53.750000 -1.749566 -1.749702
53.800000 -1.749617 -1.749702
53.850000 -1.749669 -1.749702
53.900000 -1.749720 -1.749703
53.950000 -1.749770 -1.749703
54.000000 -1.749818 -1.749703
54.050000 -1.749861 -1.749703
54.100000 -1.749900 -1.749703
54.150000 -1.749933 -1.749703
54.200000 -1.749960 -1.749703
54.250000 -1.749980 -1.749703
54.300000 -1.749992 -1.749703
54.350000 -1.749997 -1.749703
54.400000 -1.749994 -1.749703
54.450000 -1.749984 -1.749703
54.500000 -1.749968 -1.749703
54.550000 -1.749945 -1.749704
54.600000 -1.749916 -1.749704
54.650000 -1.749883 -1.749704
54.700000 -1.749846 -1.749704
54.750000 -1.749806 -1.749704
54.800000 -1.749764 -1.749704
54.850000 -1.749722 -1.749704
54.900000 -1.749680 -1.749704
54.950000 -1.749639 -1.749704
55.000000 -1.749601 -1.749704
55.050000 -1.749566 -1.749704
55.100000 -1.749535 -1.749704
55.150000 -1.749510 -1.749704
55.200000 -1.749489 -1.749704
55.250000 -1.749475 -1.749704
55.300000 -1.749466 -1.749704
55.350000 -1.749463 -1.749704
55.400000 -1.749467 -1.749705
55.450000 -1.749477 -1.749705
55.500000 -1.749492 -1.749705
55.550000 -1.749512 -1.749705
55.600000 -1.749536 -1.749705
55.650000 -1.749565 -1.749705
55.700000 -1.749596 -1.749705
55.750000 -1.749629 -1.749705
55.800000 -1.749664 -1.749705
55.850000 -1.749699 -1.749705
55.900000 -1.749733 -1.749705
55.950000 -1.749766 -1.749705
56.000000 -1.749797 -1.749705
56.050000 -1.749825 -1.749705
56.100000 -1.749849 -1.749705
56.150000 -1.749869 -1.749705
56.200000 -1.749885 -1.749705
56.250000 -1.749896 -1.749705
56.300000 -1.749902 -1.749705
56.350000 -1.749903 -1.749705
56.400000 -1.749899 -1.749705
56.450000 -1.749890 -1.749706
56.500000 -1.749877 -1.749706
56.550000 -1.749859 -1.749706
56.600000 -1.749839 -1.749706
56.650000 -1.749815 -1.749706
56.700000 -1.749789 -1.749706
56.750000 -1.749761 -1.749706
56.800000 -1.749733 -1.749706
56.850000 -1.749704 -1.749706
56.900000 -1.749676 -1.749706
56.950000 -1.749650 -1.749706
57.000000 -1.749625 -1.749706
57.050000 -1.749603 -1.749706
57.100000 -1.749584 -1.749706
57.150000 -1.749568 -1.749706
57.200000 -1.749556 -1.749706
57.250000 -1.749548 -1.749706
57.300000 -1.749544 -1.749706
57.350000 -1.749544 -1.749706
57.400000 -1.749549 -1.749706
57.450000 -1.749557 -1.749706
57.500000 -1.749569 -1.749706
57.550000 -1.749584 -1.749706
57.600000 -1.749602 -1.749706
57.650000 -1.749622 -1.749706
57.700000 -1.749643 -1.749706
57.750000 -1.749666 -1.749706
57.800000 -1.749690 -1.749706
57.850000 -1.749713 -1.749706
57.900000 -1.749736 -1.749706
57.950000 -1.749757 -1.749706
58.000000 -1.749777 -1.749706
58.050000 -1.749795 -1.749706
58.100000 -1.749810 -1.749707
58.150000 -1.749822 -1.749707
58.200000 -1.749832 -1.749707
58.250000 -1.749837 -1.749707
58.300000 -1.749840 -1.749707
58.350000 -1.749839 -1.749707
58.400000 -1.749834 -1.749707
58.450000 -1.749827 -1.749707
58.500000 -1.749817 -1.749707
58.550000 -1.749804 -1.749707
58.600000 -1.749789 -1.749707
58.650000 -1.749772 -1.749707
58.700000 -1.749754 -1.749707
58.750000 -1.749735 -1.749707
58.800000 -1.749716 -1.749707
58.850000 -1.749697 -1.749707
58.900000 -1.749678 -1.749707
58.950000 -1.749661 -1.749707
59.000000 -1.749645 -1.749707
59.050000 -1.749631 -1.749707
59.100000 -1.749619 -1.749707
59.150000 -1.749610 -1.749707
59.200000 -1.749603 -1.749707
59.250000 -1.749599 -1.749707
59.300000 -1.749598 -1.749707
59.350000 -1.749599 -1.749707
59.400000 -1.749603 -1.749707
59.450000 -1.749610 -1.749707
59.500000 -1.749619 -1.749707
59.550000 -1.749630 -1.749707
59.600000 -1.749643 -1.749707
59.650000 -1.749657 -1.749707
59.700000 -1.749672 -1.749707
59.750000 -1.749688 -1.749707
59.800000 -1.749703 -1.749707
59.850000 -1.749719 -1.749707
59.900000 -1.749734 -1.749707
59.950000 -1.749748 -1.749707
60.000000 -1.749761 -1.749707
60.050000 -1.749772 -1.749707
60.100000 -1.749781 -1.749707
60.150000 -1.749788 -1.749707
60.200000 -1.749794 -1.749707
60.250000 -1.749796 -1.749707
60.300000 -1.749797 -1.749707
60.350000 -1.749795 -1.749707
60.400000 -1.749791 -1.749707
60.450000 -1.749785 -1.749707
60.500000 -1.749778 -1.749707
60.550000 -1.749768 -1.749707
60.600000 -1.749758 -1.749707
60.650000 -1.749746 -1.749707
60.700000 -1.749733 -1.749707
60.750000 -1.749720 -1.749707
60.800000 -1.749707 -1.749707
60.850000 -1.749695 -1.749707
60.900000 -1.749683 -1.749707
60.950000 -1.749671 -1.749707
61.000000 -1.749661 -1.749707
61.050000 -1.749652 -1.749707
61.100000 -1.749645 -1.749707
61.150000 -1.749640 -1.749707
61.200000 -1.749636 -1.749707
61.250000 -1.749634 -1.749707
61.300000 -1.749634 -1.749707
61.350000 -1.749636 -1.749707
61.400000 -1.749640 -1.749708
61.450000 -1.749645 -1.749708
61.500000 -1.749652 -1.749708
61.550000 -1.749660 -1.749708
61.600000 -1.749669 -1.749708
61.650000 -1.749678 -1.749708
61.700000 -1.749689 -1.749708
61.750000 -1.749699 -1.749708
61.800000 -1.749710 -1.749708
61.850000 -1.749720 -1.749708
61.900000 -1.749730 -1.749708
61.950000 -1.749739 -1.749708
62.000000 -1.749747 -1.749708
62.050000 -1.749754 -1.749708
62.100000 -1.749760 -1.749708
62.150000 -1.749764 -1.749708
62.200000 -1.749767 -1.749708
62.250000 -1.749768 -1.749708
62.300000 -1.749768 -1.749708
62.350000 -1.749766 -1.749708
62.400000 -1.749763 -1.749708
62.450000 -1.749758 -1.749708
62.500000 -1.749752 -1.749708
62.550000 -1.749745 -1.749708
62.600000 -1.749738 -1.749708
62.650000 -1.749730 -1.749708
62.700000 -1.749721 -1.749708
62.750000 -1.749712 -1.749708
62.800000 -1.749704 -1.749708
62.850000 -1.749695 -1.749708
62.900000 -1.749687 -1.749708
62.950000 -1.749680 -1.749708
63.000000 -1.749674 -1.749708
63.050000 -1.749668 -1.749708
63.100000 -1.749664 -1.749708
63.150000 -1.749661 -1.749708
63.200000 -1.749659 -1.749708
63.250000 -1.749658 -1.749708
63.300000 -1.749659 -1.749708
63.350000 -1.749661 -1.749708
63.400000 -1.749664 -1.749708
63.450000 -1.749668 -1.749708
63.500000 -1.749673 -1.749708
63.550000 -1.749678 -1.749708
63.600000 -1.749685 -1.749708
63.650000 -1.749691 -1.749708
63.700000 -1.749698 -1.749708
63.750000 -1.749706 -1.749708
63.800000 -1.749713 -1.749708
63.850000 -1.749720 -1.749708
63.900000 -1.749726 -1.749708
63.950000 -1.749732 -1.749708
64.000000 -1.749737 -1.749708
64.050000 -1.749741 -1.749708
64.100000 -1.749745 -1.749708
64.150000 -1.749747 -1.749708
64.200000 -1.749748 -1.749708
64.250000 -1.749749 -1.749708
64.300000 -1.749748 -1.749708
64.350000 -1.749746 -1.749708
64.400000 -1.749743 -1.749708
64.450000 -1.749740 -1.749708
64.500000 -1.749736 -1.749708
64.550000 -1.749731 -1.749708
64.600000 -1.749726 -1.749708
64.650000 -1.749720 -1.749708
64.700000 -1.749714 -1.749708
64.750000 -1.749708 -1.749708
64.800000 -1.749702 -1.749708
64.850000 -1.749697 -1.749708
64.900000 -1.749692 -1.749708
64.950000 -1.749687 -1.749708
65.000000 -1.749683 -1.749708
65.050000 -1.749680 -1.749708
65.100000 -1.749677 -1.749708
65.150000 -1.749676 -1.749708
65.200000 -1.749675 -1.749708
65.250000 -1.749675 -1.749708
65.300000 -1.749675 -1.749708
65.350000 -1.749677 -1.749708
65.400000 -1.749679 -1.749708
65.450000 -1.749682 -1.749708
65.500000 -1.749686 -1.749708
65.550000 -1.749690 -1.749708
65.600000 -1.749694 -1.749708
65.650000 -1.749699 -1.749708
65.700000 -1.749704 -1.749708
65.750000 -1.749709 -1.749708
65.800000 -1.749713 -1.749708
65.850000 -1.749718 -1.749708
65.900000 -1.749722 -1.749708
65.950000 -1.749726 -1.749708
66.000000 -1.749729 -1.749708
66.050000 -1.749732 -1.749708
66.100000 -1.749733 -1.749708
66.150000 -1.749735 -1.749708
66.200000 -1.749735 -1.749708
66.250000 -1.749735 -1.749708
66.300000 -1.749734 -1.749708
66.350000 -1.749733 -1.749708
66.400000 -1.749731 -1.749708
66.450000 -1.749728 -1.749708
66.500000 -1.749725 -1.749708
66.550000 -1.749722 -1.749708
66.600000 -1.749718 -1.749708
66.650000 -1.749714 -1.749708
66.700000 -1.749710 -1.749708
66.750000 -1.749706 -1.749708
66.800000 -1.749703 -1.749708
66.850000 -1.749699 -1.749708
66.900000 -1.749696 -1.749708
66.950000 -1.749693 -1.749708
67.000000 -1.749690 -1.749708
67.050000 -1.749688 -1.749708
67.100000 -1.749687 -1.749708
67.150000 -1.749686 -1.749708
67.200000 -1.749685 -1.749708
67.250000 -1.749686 -1.749708
67.300000 -1.749687 -1.749708
67.350000 -1.749688 -1.749708
67.400000 -1.749690 -1.749708
67.450000 -1.749692 -1.749708
67.500000 -1.749694 -1.749708
67.550000 -1.749697 -1.749708
67.600000 -1.749700 -1.749708
67.650000 -1.749704 -1.749708
67.700000 -1.749707 -1.749708
67.750000 -1.749710 -1.749708
67.800000 -1.749713 -1.749708
67.850000 -1.749716 -1.749708
67.900000 -1.749719 -1.749708
67.950000 -1.749721 -1.749708
68.000000 -1.749723 -1.749708
68.050000 -1.749725 -1.749708
68.100000 -1.749726 -1.749708
68.150000 -1.749726 -1.749708
68.200000 -1.749726 -1.749708
68.250000 -1.749726 -1.749708
68.300000 -1.749725 -1.749708
68.350000 -1.749724 -1.749708
68.400000 -1.749723 -1.749708
68.450000 -1.749721 -1.749708
68.500000 -1.749719 -1.749708
68.550000 -1.749716 -1.749708
68.600000 -1.749714 -1.749708
68.650000 -1.749711 -1.749708
68.700000 -1.749708 -1.749708
68.750000 -1.749706 -1.749708
68.800000 -1.749703 -1.749708
68.850000 -1.749701 -1.749708
68.900000 -1.749699 -1.749708
68.950000 -1.749697 -1.749708
69.000000 -1.749695 -1.749708
69.050000 -1.749694 -1.749708
69.100000 -1.749693 -1.749708
69.150000 -1.749693 -1.749708
69.200000 -1.749693 -1.749708
69.250000 -1.749693 -1.749708
69.300000 -1.749694 -1.749708
69.350000 -1.749695 -1.749708
69.400000 -1.749696 -1.749708
69.450000 -1.749698 -1.749708
69.500000 -1.749700 -1.749708
69.550000 -1.749702 -1.749708
69.600000 -1.749704 -1.749708
69.650000 -1.749706 -1.749708
69.700000 -1.749708 -1.749708
69.750000 -1.749710 -1.749708
69.800000 -1.749712 -1.749708
69.850000 -1.749714 -1.749708
69.900000 -1.749716 -1.749708
69.950000 -1.749717 -1.749708
70.000000 -1.749719 -1.749708
70.050000 -1.749720 -1.749708
70.100000 -1.749720 -1.749708
70.150000 -1.749720 -1.749708
70.200000 -1.749720 -1.749708
70.250000 -1.749720 -1.749708
70.300000 -1.749719 -1.749708
70.350000 -1.749718 -1.749708
70.400000 -1.749717 -1.749708
70.450000 -1.749716 -1.749708
70.500000 -1.749714 -1.749708
70.550000 -1.749713 -1.749708
70.600000 -1.749711 -1.749708
70.650000 -1.749709 -1.749708
70.700000 -1.749707 -1.749708
70.750000 -1.749706 -1.749708
70.800000 -1.749704 -1.749708
70.850000 -1.749703 -1.749708
70.900000 -1.749701 -1.749708
70.950000 -1.749700 -1.749708
71.000000 -1.749699 -1.749708
71.050000 -1.749698 -1.749708
71.100000 -1.749698 -1.749708
71.150000 -1.749698 -1.749708
71.200000 -1.749698 -1.749708
71.250000 -1.749698 -1.749708
71.300000 -1.749699 -1.749708
71.350000 -1.749700 -1.749708
71.400000 -1.749701 -1.749708
71.450000 -1.749702 -1.749708
71.500000 -1.749703 -1.749708
71.550000 -1.749705 -1.749708
71.600000 -1.749706 -1.749708
71.650000 -1.749707 -1.749708
71.700000 -1.749709 -1.749708
71.750000 -1.749710 -1.749708
71.800000 -1.749712 -1.749708
71.850000 -1.749713 -1.749708
71.900000 -1.749714 -1.749708
71.950000 -1.749715 -1.749708
72.000000 -1.749716 -1.749708
72.050000 -1.749716 -1.749708
72.100000 -1.749716 -1.749708
72.150000 -1.749716 -1.749708
72.200000 -1.749716 -1.749708
72.250000 -1.749716 -1.749708
72.300000 -1.749715 -1.749708
72.350000 -1.749715 -1.749708
72.400000 -1.749714 -1.749708
72.450000 -1.749713 -1.749708
72.500000 -1.749712 -1.749708
72.550000 -1.749711 -1.749708
72.600000 -1.749709 -1.749708
72.650000 -1.749708 -1.749708
72.700000 -1.749707 -1.749708
72.750000 -1.749706 -1.749708
72.800000 -1.749705 -1.749708
72.850000 -1.749704 -1.749708
72.900000 -1.749703 -1.749708
72.950000 -1.749702 -1.749708
73.000000 -1.749702 -1.749708
73.050000 -1.749701 -1.749708
73.100000 -1.749701 -1.749708
73.150000 -1.749701 -1.749708
73.200000 -1.749701 -1.749708
73.250000 -1.749702 -1.749708
73.300000 -1.749702 -1.749708
73.350000 -1.749703 -1.749708
73.400000 -1.749703 -1.749708
73.450000 -1.749704 -1.749708
73.500000 -1.749705 -1.749708
73.550000 -1.749706 -1.749708
73.600000 -1.749707 -1.749708
73.650000 -1.749708 -1.749708
73.700000 -1.749709 -1.749708
73.750000 -1.749710 -1.749708
73.800000 -1.749711 -1.749708
73.850000 -1.749712 -1.749708
73.900000 -1.749712 -1.749708
73.950000 -1.749713 -1.749708
74.000000 -1.749713 -1.749708
74.050000 -1.749714 -1.749708
74.100000 -1.749714 -1.749708
74.150000 -1.749714 -1.749708
74.200000 -1.749714 -1.749708
74.250000 -1.749713 -1.749708
74.300000 -1.749713 -1.749708
74.350000 -1.749712 -1.749708
74.400000 -1.749712 -1.749708
74.450000 -1.749711 -1.749708
74.500000 -1.749710 -1.749708
74.550000 -1.749709 -1.749708
74.600000 -1.749709 -1.749708
74.650000 -1.749708 -1.749708
74.700000 -1.749707 -1.749708
74.750000 -1.749706 -1.749708
74.800000 -1.749706 -1.749708
74.850000 -1.749705 -1.749708
74.900000 -1.749704 -1.749708
74.950000 -1.749704 -1.749708
75.000000 -1.749704 -1.749708
75.050000 -1.749704 -1.749708
75.100000 -1.749703 -1.749708
75.150000 -1.749703 -1.749708
75.200000 -1.749704 -1.749708
75.250000 -1.749704 -1.749708
75.300000 -1.749704 -1.749708
75.350000 -1.749705 -1.749708
75.400000 -1.749705 -1.749708
75.450000 -1.749706 -1.749708
75.500000 -1.749706 -1.749708
75.550000 -1.749707 -1.749708
75.600000 -1.749708 -1.749708
75.650000 -1.749708 -1.749708
75.700000 -1.749709 -1.749708
75.750000 -1.749710 -1.749708
75.800000 -1.749710 -1.749708
75.850000 -1.749711 -1.749708
75.900000 -1.749711 -1.749708
75.950000 -1.749711 -1.749708
76.000000 -1.749712 -1.749708
76.050000 -1.749712 -1.749708
76.100000 -1.749712 -1.749708
76.150000 -1.749712 -1.749708
76.200000 -1.749712 -1.749708
76.250000 -1.749711 -1.749708
76.300000 -1.749711 -1.749708
76.350000 -1.749711 -1.749708
76.400000 -1.749710 -1.749708
76.450000 -1.749710 -1.749708
76.500000 -1.749709 -1.749708
76.550000 -1.749709 -1.749708
76.600000 -1.749708 -1.749708
76.650000 -1.749708 -1.749708
76.700000 -1.749707 -1.749708
76.750000 -1.749707 -1.749708
76.800000 -1.749706 -1.749708
76.850000 -1.749706 -1.749708
76.900000 -1.749705 -1.749708
76.950000 -1.749705 -1.749708
77.000000 -1.749705 -1.749708
77.050000 -1.749705 -1.749708
77.100000 -1.749705 -1.749708
77.150000 -1.749705 -1.749708
77.200000 -1.749705 -1.749708
77.250000 -1.749705 -1.749708
77.300000 -1.749706 -1.749708
77.350000 -1.749706 -1.749708
77.400000 -1.749706 -1.749708
77.450000 -1.749707 -1.749708
77.500000 -1.749707 -1.749708
77.550000 -1.749708 -1.749708
77.600000 -1.749708 -1.749708
77.650000 -1.749709 -1.749708
77.700000 -1.749709 -1.749708
77.750000 -1.749709 -1.749708
77.800000 -1.749710 -1.749708
77.850000 -1.749710 -1.749708
77.900000 -1.749710 -1.749708
77.950000 -1.749710 -1.749708
78.000000 -1.749711 -1.749708
78.050000 -1.749711 -1.749708
78.100000 -1.749711 -1.749708
78.150000 -1.749711 -1.749708
78.200000 -1.749710 -1.749708
78.250000 -1.749710 -1.749708
78.300000 -1.749710 -1.749708
78.350000 -1.749710 -1.749708
78.400000 -1.749709 -1.749708
78.450000 -1.749709 -1.749708
78.500000 -1.749709 -1.749708
78.550000 -1.749708 -1.749708
78.600000 -1.749708 -1.749708
78.650000 -1.749708 -1.749708
78.700000 -1.749707 -1.749708
78.750000 -1.749707 -1.749708
78.800000 -1.749707 -1.749708
78.850000 -1.749706 -1.749708
78.900000 -1.749706 -1.749708
78.950000 -1.749706 -1.749708
79.000000 -1.749706 -1.749708
79.050000 -1.749706 -1.749708
79.100000 -1.749706 -1.749708
79.150000 -1.749706 -1.749708
79.200000 -1.749706 -1.749708
79.250000 -1.749706 -1.749708
79.300000 -1.749707 -1.749708
79.350000 -1.749707 -1.749708
79.400000 -1.749707 -1.749708
79.450000 -1.749707 -1.749708
79.500000 -1.749708 -1.749708
79.550000 -1.749708 -1.749708
79.600000 -1.749708 -1.749708
79.650000 -1.749709 -1.749708
79.700000 -1.749709 -1.749708
79.750000 -1.749709 -1.749708
79.800000 -1.749709 -1.749708
79.850000 -1.749709 -1.749708
79.900000 -1.749710 -1.749708
79.950000 -1.749710 -1.749708
80.000000 -1.749710 -1.749708
80.050000 -1.749710 -1.749708
80.100000 -1.749710 -1.749708
80.150000 -1.749710 -1.749708
80.200000 -1.749710 -1.749708
80.250000 -1.749709 -1.749708
80.300000 -1.749709 -1.749708
80.350000 -1.749709 -1.749708
80.400000 -1.749709 -1.749708
80.450000 -1.749709 -1.749708
80.500000 -1.749708 -1.749708
80.550000 -1.749708 -1.749708
80.600000 -1.749708 -1.749708
80.650000 -1.749708 -1.749708
80.700000 -1.749707 -1.749708
80.750000 -1.749707 -1.749708
80.800000 -1.749707 -1.749708
80.850000 -1.749707 -1.749708
80.900000 -1.749707 -1.749708
80.950000 -1.749707 -1.749708
81.000000 -1.749707 -1.749708
81.050000 -1.749707 -1.749708
81.100000 -1.749707 -1.749708
81.150000 -1.749707 -1.749708
81.200000 -1.749707 -1.749708
81.250000 -1.749707 -1.749708
81.300000 -1.749707 -1.749708
81.350000 -1.749707 -1.749708
81.400000 -1.749707 -1.749708
81.450000 -1.749708 -1.749708
81.500000 -1.749708 -1.749708
81.550000 -1.749708 -1.749708
81.600000 -1.749708 -1.749708
81.650000 -1.749708 -1.749708
81.700000 -1.749709 -1.749708
81.750000 -1.749709 -1.749708
81.800000 -1.749709 -1.749708
81.850000 -1.749709 -1.749708
81.900000 -1.749709 -1.749708
81.950000 -1.749709 -1.749708
82.000000 -1.749709 -1.749708
82.050000 -1.749709 -1.749708
82.100000 -1.749709 -1.749708
82.150000 -1.749709 -1.749708
82.200000 -1.749709 -1.749708
82.250000 -1.749709 -1.749708
82.300000 -1.749709 -1.749708
82.350000 -1.749709 -1.749708
82.400000 -1.749709 -1.749708
82.450000 -1.749708 -1.749708
82.500000 -1.749708 -1.749708
82.550000 -1.749708 -1.749708
82.600000 -1.749708 -1.749708
82.650000 -1.749708 -1.749708
82.700000 -1.749708 -1.749708
82.750000 -1.749707 -1.749708
82.800000 -1.749707 -1.749708
82.850000 -1.749707 -1.749708
82.900000 -1.749707 -1.749708
82.950000 -1.749707 -1.749708
83.000000 -1.749707 -1.749708
83.050000 -1.749707 -1.749708
83.100000 -1.749707 -1.749708
83.150000 -1.749707 -1.749708
83.200000 -1.749707 -1.749708
83.250000 -1.749707 -1.749708
83.300000 -1.749707 -1.749708
83.350000 -1.749708 -1.749708
83.400000 -1.749708 -1.749708
83.450000 -1.749708 -1.749708
83.500000 -1.749708 -1.749708
83.550000 -1.749708 -1.749708
83.600000 -1.749708 -1.749708
83.650000 -1.749708 -1.749708
83.700000 -1.749709 -1.749708
83.750000 -1.749709 -1.749708
83.800000 -1.749709 -1.749708
83.850000 -1.749709 -1.749708
83.900000 -1.749709 -1.749708
83.950000 -1.749709 -1.749708
84.000000 -1.749709 -1.749708
84.050000 -1.749709 -1.749708
84.100000 -1.749709 -1.749708
84.150000 -1.749709 -1.749708
84.200000 -1.749709 -1.749708
84.250000 -1.749709 -1.749708
84.300000 -1.749709 -1.749708
84.350000 -1.749708 -1.749708
84.400000 -1.749708 -1.749708
84.450000 -1.749708 -1.749708
84.500000 -1.749708 -1.749708
84.550000 -1.749708 -1.749708
84.600000 -1.749708 -1.749708
84.650000 -1.749708 -1.749708
84.700000 -1.749708 -1.749708
84.750000 -1.749708 -1.749708
84.800000 -1.749708 -1.749708
84.850000 -1.749707 -1.749708
84.900000 -1.749707 -1.749708
84.950000 -1.749707 -1.749708
85.000000 -1.749707 -1.749708
85.050000 -1.749707 -1.749708
85.100000 -1.749707 -1.749708
85.150000 -1.749708 -1.749708
85.200000 -1.749708 -1.749708
85.250000 -1.749708 -1.749708
85.300000 -1.749708 -1.749708
85.350000 -1.749708 -1.749708
85.400000 -1.749708 -1.749708
85.450000 -1.749708 -1.749708
85.500000 -1.749708 -1.749708
85.550000 -1.749708 -1.749708
85.600000 -1.749708 -1.749708
85.650000 -1.749708 -1.749708
85.700000 -1.749708 -1.749708
85.750000 -1.749708 -1.749708
85.800000 -1.749709 -1.749708
85.850000 -1.749709 -1.749708
85.900000 -1.749709 -1.749708
85.950000 -1.749709 -1.749708
86.000000 -1.749709 -1.749708
86.050000 -1.749709 -1.749708
86.100000 -1.749709 -1.749708
86.150000 -1.749709 -1.749708
86.200000 -1.749708 -1.749708
86.250000 -1.749708 -1.749708
86.300000 -1.749708 -1.749708
86.350000 -1.749708 -1.749708
86.400000 -1.749708 -1.749708
86.450000 -1.749708 -1.749708
86.500000 -1.749708 -1.749708
86.550000 -1.749708 -1.749708
86.600000 -1.749708 -1.749708
86.650000 -1.749708 -1.749708
86.700000 -1.749708 -1.749708
86.750000 -1.749708 -1.749708
86.800000 -1.749708 -1.749708
86.850000 -1.749708 -1.749708
86.900000 -1.749708 -1.749708
86.950000 -1.749708 -1.749708
87.000000 -1.749708 -1.749708
87.050000 -1.749708 -1.749708
87.100000 -1.749708 -1.749708
87.150000 -1.749708 -1.749708
87.200000 -1.749708 -1.749708
87.250000 -1.749708 -1.749708
87.300000 -1.749708 -1.749708
87.350000 -1.749708 -1.749708
87.400000 -1.749708 -1.749708
87.450000 -1.749708 -1.749708
87.500000 -1.749708 -1.749708
87.550000 -1.749708 -1.749708
87.600000 -1.749708 -1.749708
87.650000 -1.749708 -1.749708
87.700000 -1.749708 -1.749708
87.750000 -1.749708 -1.749708
87.800000 -1.749708 -1.749708
87.850000 -1.749708 -1.749708
87.900000 -1.749708 -1.749708
87.950000 -1.749708 -1.749708
88.000000 -1.749708 -1.749708
88.050000 -1.749708 -1.749708
88.100000 -1.749708 -1.749708
88.150000 -1.749708 -1.749708
88.200000 -1.749708 -1.749708
88.250000 -1.749708 -1.749708
88.300000 -1.749708 -1.749708
88.350000 -1.749708 -1.749708
88.400000 -1.749708 -1.749708
88.450000 -1.749708 -1.749708
88.500000 -1.749708 -1.749708
88.550000 -1.749708 -1.749708
88.600000 -1.749708 -1.749708
88.650000 -1.749708 -1.749708
88.700000 -1.749708 -1.749708
88.750000 -1.749708 -1.749708
88.800000 -1.749708 -1.749708
88.850000 -1.749708 -1.749708
88.900000 -1.749708 -1.749708
88.950000 -1.749708 -1.749708
89.000000 -1.749708 -1.749708
89.050000 -1.749708 -1.749708
89.100000 -1.749708 -1.749708
89.150000 -1.749708 -1.749708
89.200000 -1.749708 -1.749708
89.250000 -1.749708 -1.749708
89.300000 -1.749708 -1.749708
89.350000 -1.749708 -1.749708
89.400000 -1.749708 -1.749708
89.450000 -1.749708 -1.749708
89.500000 -1.749708 -1.749708
89.550000 -1.749708 -1.749708
89.600000 -1.749708 -1.749708
89.650000 -1.749708 -1.749708
89.700000 -1.749708 -1.749708
89.750000 -1.749708 -1.749708
89.800000 -1.749708 -1.749708
89.850000 -1.749708 -1.749708
89.900000 -1.749708 -1.749708
89.950000 -1.749708 -1.749708
90.000000 -1.749708 -1.749708
90.050000 -1.749708 -1.749708
90.100000 -1.749708 -1.749708
90.150000 -1.749708 -1.749708
90.200000 -1.749708 -1.749708
90.250000 -1.749708 -1.749708
90.300000 -1.749708 -1.749708
90.350000 -1.749708 -1.749708
90.400000 -1.749708 -1.749708
90.450000 -1.749708 -1.749708
90.500000 -1.749708 -1.749708
90.550000 -1.749708 -1.749708
90.600000 -1.749708 -1.749708
90.650000 -1.749708 -1.749708
90.700000 -1.749708 -1.749708
90.750000 -1.749708 -1.749708
90.800000 -1.749708 -1.749708
90.850000 -1.749708 -1.749708
90.900000 -1.749708 -1.749708
90.950000 -1.749708 -1.749708
91.000000 -1.749708 -1.749708
91.050000 -1.749708 -1.749708
91.100000 -1.749708 -1.749708
91.150000 -1.749708 -1.749708
91.200000 -1.749708 -1.749708
91.250000 -1.749708 -1.749708
91.300000 -1.749708 -1.749708
91.350000 -1.749708 -1.749708
91.400000 -1.749708 -1.749708
91.450000 -1.749708 -1.749708
91.500000 -1.749708 -1.749708
91.550000 -1.749708 -1.749708
91.600000 -1.749708 -1.749708
91.650000 -1.749708 -1.749708
91.700000 -1.749708 -1.749708
91.750000 -1.749708 -1.749708
91.800000 -1.749708 -1.749708
91.850000 -1.749708 -1.749708
91.900000 -1.749708 -1.749708
91.950000 -1.749708 -1.749708
92.000000 -1.749708 -1.749708
92.050000 -1.749708 -1.749708
92.100000 -1.749708 -1.749708
92.150000 -1.749708 -1.749708
92.200000 -1.749708 -1.749708
92.250000 -1.749708 -1.749708
92.300000 -1.749708 -1.749708
92.350000 -1.749708 -1.749708
92.400000 -1.749708 -1.749708
92.450000 -1.749708 -1.749708
92.500000 -1.749708 -1.749708
92.550000 -1.749708 -1.749708
92.600000 -1.749708 -1.749708
92.650000 -1.749708 -1.749708
92.700000 -1.749708 -1.749708
92.750000 -1.749708 -1.749708
92.800000 -1.749708 -1.749708
92.850000 -1.749708 -1.749708
92.900000 -1.749708 -1.749708
92.950000 -1.749708 -1.749708
93.000000 -1.749708 -1.749708
93.050000 -1.749708 -1.749708
93.100000 -1.749708 -1.749708
93.150000 -1.749708 -1.749708
93.200000 -1.749708 -1.749708
93.250000 -1.749708 -1.749708
93.300000 -1.749708 -1.749708
93.350000 -1.749708 -1.749708
93.400000 -1.749708 -1.749708
93.450000 -1.749708 -1.749708
93.500000 -1.749708 -1.749708
93.550000 -1.749708 -1.749708
93.600000 -1.749708 -1.749708
93.650000 -1.749708 -1.749708
93.700000 -1.749708 -1.749708
93.750000 -1.749708 -1.749708
93.800000 -1.749708 -1.749708
93.850000 -1.749708 -1.749708
93.900000 -1.749708 -1.749708
93.950000 -1.749708 -1.749708
94.000000 -1.749708 -1.749708
94.050000 -1.749708 -1.749708
94.100000 -1.749708 -1.749708
94.150000 -1.749708 -1.749708
94.200000 -1.749708 -1.749708
94.250000 -1.749708 -1.749708
94.300000 -1.749708 -1.749708
94.350000 -1.749708 -1.749708
94.400000 -1.749708 -1.749708
94.450000 -1.749708 -1.749708
94.500000 -1.749708 -1.749708
94.550000 -1.749708 -1.749708
94.600000 -1.749708 -1.749708
94.650000 -1.749708 -1.749708
94.700000 -1.749708 -1.749708
94.750000 -1.749708 -1.749708
94.800000 -1.749708 -1.749708
94.850000 -1.749708 -1.749708
94.900000 -1.749708 -1.749708
94.950000 -1.749708 -1.749708
95.000000 -1.749708 -1.749708
95.050000 -1.749708 -1.749708
95.100000 -1.749708 -1.749708
95.150000 -1.749708 -1.749708
95.200000 -1.749708 -1.749708
95.250000 -1.749708 -1.749708
95.300000 -1.749708 -1.749708
95.350000 -1.749708 -1.749708
95.400000 -1.749708 -1.749708
95.450000 -1.749708 -1.749708
95.500000 -1.749708 -1.749708
95.550000 -1.749708 -1.749708
95.600000 -1.749708 -1.749708
95.650000 -1.749708 -1.749708
95.700000 -1.749708 -1.749708
95.750000 -1.749708 -1.749708
95.800000 -1.749708 -1.749708
95.850000 -1.749708 -1.749708
95.900000 -1.749708 -1.749708
95.950000 -1.749708 -1.749708
96.000000 -1.749708 -1.749708
96.050000 -1.749708 -1.749708
96.100000 -1.749708 -1.749708
96.150000 -1.749708 -1.749708
96.200000 -1.749708 -1.749708
96.250000 -1.749708 -1.749708
96.300000 -1.749708 -1.749708
96.350000 -1.749708 -1.749708
96.400000 -1.749708 -1.749708
96.450000 -1.749708 -1.749708
96.500000 -1.749708 -1.749708
96.550000 -1.749708 -1.749708
96.600000 -1.749708 -1.749708
96.650000 -1.749708 -1.749708
96.700000 -1.749708 -1.749708
96.750000 -1.749708 -1.749708
96.800000 -1.749708 -1.749708
96.850000 -1.749708 -1.749708
96.900000 -1.749708 -1.749708
96.950000 -1.749708 -1.749708
97.000000 -1.749708 -1.749708
97.050000 -1.749708 -1.749708
97.100000 -1.749708 -1.749708
97.150000 -1.749708 -1.749708
97.200000 -1.749708 -1.749708
97.250000 -1.749708 -1.749708
97.300000 -1.749708 -1.749708
97.350000 -1.749708 -1.749708
97.400000 -1.749708 -1.749708
97.450000 -1.749708 -1.749708
97.500000 -1.749708 -1.749708
97.550000 -1.749708 -1.749708
97.600000 -1.749708 -1.749708
97.650000 -1.749708 -1.749708
97.700000 -1.749708 -1.749708
97.750000 -1.749708 -1.749708
97.800000 -1.749708 -1.749708
97.850000 -1.749708 -1.749708
97.900000 -1.749708 -1.749708
97.950000 -1.749708 -1.749708
98.000000 -1.749708 -1.749708
98.050000 -1.749708 -1.749708
98.100000 -1.749708 -1.749708
98.150000 -1.749708 -1.749708
98.200000 -1.749708 -1.749708
98.250000 -1.749708 -1.749708
98.300000 -1.749708 -1.749708
98.350000 -1.749708 -1.749708
98.400000 -1.749708 -1.749708
98.450000 -1.749708 -1.749708
98.500000 -1.749708 -1.749708
98.550000 -1.749708 -1.749708
98.600000 -1.749708 -1.749708
98.650000 -1.749708 -1.749708
98.700000 -1.749708 -1.749708
98.750000 -1.749708 -1.749708
98.800000 -1.749708 -1.749708
98.850000 -1.749708 -1.749708
98.900000 -1.749708 -1.749708
98.950000 -1.749708 -1.749708
99.000000 -1.749708 -1.749708
99.050000 -1.749708 -1.749708
99.100000 -1.749708 -1.749708
99.150000 -1.749708 -1.749708
99.200000 -1.749708 -1.749708
99.250000 -1.749708 -1.749708
99.300000 -1.749708 -1.749708
99.350000 -1.749708 -1.749708
99.400000 -1.749708 -1.749708
99.450000 -1.749708 -1.749708
99.500000 -1.749708 -1.749708
99.550000 -1.749708 -1.749708
99.600000 -1.749708 -1.749708
99.650000 -1.749708 -1.749708
99.700000 -1.749708 -1.749708
99.750000 -1.749708 -1.749708
99.800000 -1.749708 -1.749708
99.850000 -1.749708 -1.749708
99.900000 -1.749708 -1.749708
99.950000 -1.749708 -1.749708
100.000000 -1.749708 -1.749708
100.050000 -1.749708 -1.749708
100.100000 -1.749708 -1.749708
100.150000 -1.749708 -1.749708
100.200000 -1.749708 -1.749708
100.250000 -1.749708 -1.749708
100.300000 -1.749708 -1.749708
100.350000 -1.749708 -1.749708
100.400000 -1.749708 -1.749708
100.450000 -1.749708 -1.749708
100.500000 -1.749708 -1.749708
100.550000 -1.749708 -1.749708
100.600000 -1.749708 -1.749708
100.650000 -1.749708 -1.749708
100.700000 -1.749708 -1.749708
100.750000 -1.749708 -1.749708
100.800000 -1.749708 -1.749708
100.850000 -1.749708 -1.749708
100.900000 -1.749708 -1.749708
100.950000 -1.749708 -1.749708
101.000000 -1.749708 -1.749708
101.050000 -1.749708 -1.749708
101.100000 -1.749708 -1.749708
101.150000 -1.749708 -1.749708
101.200000 -1.749708 -1.749708
101.250000 -1.749708 -1.749708
101.300000 -1.749708 -1.749708
101.350000 -1.749708 -1.749708
101.400000 -1.749708 -1.749708
101.450000 -1.749708 -1.749708
101.500000 -1.749708 -1.749708
101.550000 -1.749708 -1.749708
101.600000 -1.749708 -1.749708
101.650000 -1.749708 -1.749708
101.700000 -1.749708 -1.749708
101.750000 -1.749708 -1.749708
101.800000 -1.749708 -1.749708
101.850000 -1.749708 -1.749708
101.900000 -1.749708 -1.749708
101.950000 -1.749708 -1.749708
102.000000 -1.749708 -1.749708
102.050000 -1.749708 -1.749708
102.100000 -1.749708 -1.749708
102.150000 -1.749708 -1.749708
102.200000 -1.749708 -1.749708
102.250000 -1.749708 -1.749708
102.300000 -1.749708 -1.749708
102.350000 -1.749708 -1.749708
102.400000 -1.749708 -1.749708
102.450000 -1.749708 -1.749708
102.500000 -1.749708 -1.749708
102.550000 -1.749708 -1.749708
102.600000 -1.749708 -1.749708
102.650000 -1.749708 -1.749708
102.700000 -1.749708 -1.749708
102.750000 -1.749708 -1.749708
102.800000 -1.749708 -1.749708
102.850000 -1.749708 -1.749708
102.900000 -1.749708 -1.749708
102.950000 -1.749708 -1.749708
103.000000 -1.749708 -1.749708
103.050000 -1.749708 -1.749708
103.100000 -1.749708 -1.749708
103.150000 -1.749708 -1.749708
103.200000 -1.749708 -1.749708
103.250000 -1.749708 -1.749708
103.300000 -1.749708 -1.749708
103.350000 -1.749708 -1.749708
103.400000 -1.749708 -1.749708
103.450000 -1.749708 -1.749708
103.500000 -1.749708 -1.749708
103.550000 -1.749708 -1.749708
103.600000 -1.749708 -1.749708
103.650000 -1.749708 -1.749708
103.700000 -1.749708 -1.749708
103.750000 -1.749708 -1.749708
103.800000 -1.749708 -1.749708
103.850000 -1.749708 -1.749708
103.900000 -1.749708 -1.749708
103.950000 -1.749708 -1.749708
104.000000 -1.749708 -1.749708
104.050000 -1.749708 -1.749708
104.100000 -1.749708 -1.749708
104.150000 -1.749708 -1.749708
104.200000 -1.749708 -1.749708
104.250000 -1.749708 -1.749708
104.300000 -1.749708 -1.749708
104.350000 -1.749708 -1.749708
104.400000 -1.749708 -1.749708
104.450000 -1.749708 -1.749708
104.500000 -1.749708 -1.749708
104.550000 -1.749708 -1.749708
104.600000 -1.749708 -1.749708
104.650000 -1.749708 -1.749708
104.700000 -1.749708 -1.749708
104.750000 -1.749708 -1.749708
104.800000 -1.749708 -1.749708
104.850000 -1.749708 -1.749708
104.900000 -1.749708 -1.749708
104.950000 -1.749708 -1.749708
105.000000 -1.749708 -1.749708
105.050000 -1.749708 -1.749708
105.100000 -1.749708 -1.749708
105.150000 -1.749708 -1.749708
105.200000 -1.749708 -1.749708
105.250000 -1.749708 -1.749708
105.300000 -1.749708 -1.749708
105.350000 -1.749708 -1.749708
105.400000 -1.749708 -1.749708
105.450000 -1.749708 -1.749708
105.500000 -1.749708 -1.749708
105.550000 -1.749708 -1.749708
105.600000 -1.749708 -1.749708
105.650000 -1.749708 -1.749708
105.700000 -1.749708 -1.749708
105.750000 -1.749708 -1.749708
105.800000 -1.749708 -1.749708
105.850000 -1.749708 -1.749708
105.900000 -1.749708 -1.749708
105.950000 -1.749708 -1.749708
106.000000 -1.749708 -1.749708
106.050000 -1.749708 -1.749708
106.100000 -1.749708 -1.749708
106.150000 -1.749708 -1.749708
106.200000 -1.749708 -1.749708
106.250000 -1.749708 -1.749708
106.300000 -1.749708 -1.749708
106.350000 -1.749708 -1.749708
106.400000 -1.749708 -1.749708
106.450000 -1.749708 -1.749708
106.500000 -1.749708 -1.749708
106.550000 -1.749708 -1.749708
106.600000 -1.749708 -1.749708
106.650000 -1.749708 -1.749708
106.700000 -1.749708 -1.749708
106.750000 -1.749708 -1.749708
106.800000 -1.749708 -1.749708
106.850000 -1.749708 -1.749708
106.900000 -1.749708 -1.749708
106.950000 -1.749708 -1.749708
107.000000 -1.749708 -1.749708
107.050000 -1.749708 -1.749708
107.100000 -1.749708 -1.749708
107.150000 -1.749708 -1.749708
107.200000 -1.749708 -1.749708
107.250000 -1.749708 -1.749708
107.300000 -1.749708 -1.749708
107.350000 -1.749708 -1.749708
107.400000 -1.749708 -1.749708
107.450000 -1.749708 -1.749708
107.500000 -1.749708 -1.749708
107.550000 -1.749708 -1.749708
107.600000 -1.749708 -1.749708
107.650000 -1.749708 -1.749708
107.700000 -1.749708 -1.749708
107.750000 -1.749708 -1.749708
107.800000 -1.749708 -1.749708
107.850000 -1.749708 -1.749708
107.900000 -1.749708 -1.749708
107.950000 -1.749708 -1.749708
108.000000 -1.749708 -1.749708
108.050000 -1.749708 -1.749708
108.100000 -1.749708 -1.749708
108.150000 -1.749708 -1.749708
108.200000 -1.749708 -1.749708
108.250000 -1.749708 -1.749708
108.300000 -1.749708 -1.749708
108.350000 -1.749708 -1.749708
108.400000 -1.749708 -1.749708
108.450000 -1.749708 -1.749708
108.500000 -1.749708 -1.749708
108.550000 -1.749708 -1.749708
108.600000 -1.749708 -1.749708
108.650000 -1.749708 -1.749708
108.700000 -1.749708 -1.749708
108.750000 -1.749708 -1.749708
108.800000 -1.749708 -1.749708
108.850000 -1.749708 -1.749708
108.900000 -1.749708 -1.749708
108.950000 -1.749708 -1.749708
109.000000 -1.749708 -1.749708
109.050000 -1.749708 -1.749708
109.100000 -1.749708 -1.749708
109.150000 -1.749708 -1.749708
109.200000 -1.749708 -1.749708
109.250000 -1.749708 -1.749708
109.300000 -1.749708 -1.749708
109.350000 -1.749708 -1.749708
109.400000 -1.749708 -1.749708
109.450000 -1.749708 -1.749708
109.500000 -1.749708 -1.749708
109.550000 -1.749708 -1.749708
109.600000 -1.749708 -1.749708
109.650000 -1.749708 -1.749708
109.700000 -1.749708 -1.749708
109.750000 -1.749708 -1.749708
109.800000 -1.749708 -1.749708
109.850000 -1.749708 -1.749708
109.900000 -1.749708 -1.749708
109.950000 -1.749708 -1.749708
110.000000 -1.749708 -1.749708
110.050000 -1.749708 -1.749708
110.100000 -1.749708 -1.749708
110.150000 -1.749708 -1.749708
110.200000 -1.749708 -1.749708
110.250000 -1.749708 -1.749708
110.300000 -1.749708 -1.749708
110.350000 -1.749708 -1.749708
110.400000 -1.749708 -1.749708
110.450000 -1.749708 -1.749708
110.500000 -1.749708 -1.749708
110.550000 -1.749708 -1.749708
110.600000 -1.749708 -1.749708
110.650000 -1.749708 -1.749708
110.700000 -1.749708 -1.749708
110.750000 -1.749708 -1.749708
110.800000 -1.749708 -1.749708
110.850000 -1.749708 -1.749708
110.900000 -1.749708 -1.749708
110.950000 -1.749708 -1.749708
111.000000 -1.749708 -1.749708
111.050000 -1.749708 -1.749708
111.100000 -1.749708 -1.749708
111.150000 -1.749708 -1.749708
111.200000 -1.749708 -1.749708
111.250000 -1.749708 -1.749708
111.300000 -1.749708 -1.749708
111.350000 -1.749708 -1.749708
111.400000 -1.749708 -1.749708
111.450000 -1.749708 -1.749708
111.500000 -1.749708 -1.749708
111.550000 -1.749708 -1.749708
111.600000 -1.749708 -1.749708
111.650000 -1.749708 -1.749708
111.700000 -1.749708 -1.749708
111.750000 -1.749708 -1.749708
111.800000 -1.749708 -1.749708
111.850000 -1.749708 -1.749708
111.900000 -1.749708 -1.749708
111.950000 -1.749708 -1.749708
112.000000 -1.749708 -1.749708
112.050000 -1.749708 -1.749708
112.100000 -1.749708 -1.749708
112.150000 -1.749708 -1.749708
112.200000 -1.749708 -1.749708
112.250000 -1.749708 -1.749708
112.300000 -1.749708 -1.749708
112.350000 -1.749708 -1.749708
112.400000 -1.749708 -1.749708
112.450000 -1.749708 -1.749708
112.500000 -1.749708 -1.749708
112.550000 -1.749708 -1.749708
112.600000 -1.749708 -1.749708
112.650000 -1.749708 -1.749708
112.700000 -1.749708 -1.749708
112.750000 -1.749708 -1.749708
112.800000 -1.749708 -1.749708
112.850000 -1.749708 -1.749708
112.900000 -1.749708 -1.749708
112.950000 -1.749708 -1.749708
113.000000 -1.749708 -1.749708
113.050000 -1.749708 -1.749708
113.100000 -1.749708 -1.749708
113.150000 -1.749708 -1.749708
113.200000 -1.749708 -1.749708
113.250000 -1.749708 -1.749708
113.300000 -1.749708 -1.749708
113.350000 -1.749708 -1.749708
113.400000 -1.749708 -1.749708
113.450000 -1.749708 -1.749708
113.500000 -1.749708 -1.749708
113.550000 -1.749708 -1.749708
113.600000 -1.749708 -1.749708
113.650000 -1.749708 -1.749708
113.700000 -1.749708 -1.749708
113.750000 -1.749708 -1.749708
113.800000 -1.749708 -1.749708
113.850000 -1.749708 -1.749708
113.900000 -1.749708 -1.749708
113.950000 -1.749708 -1.749708
114.000000 -1.749708 -1.749708
114.050000 -1.749708 -1.749708
114.100000 -1.749708 -1.749708
114.150000 -1.749708 -1.749708
114.200000 -1.749708 -1.749708
114.250000 -1.749708 -1.749708
114.300000 -1.749708 -1.749708
114.350000 -1.749708 -1.749708
114.400000 -1.749708 -1.749708
114.450000 -1.749708 -1.749708
114.500000 -1.749708 -1.749708
114.550000 -1.749708 -1.749708
114.600000 -1.749708 -1.749708
114.650000 -1.749708 -1.749708
114.700000 -1.749708 -1.749708
114.750000 -1.749708 -1.749708
114.800000 -1.749708 -1.749708
114.850000 -1.749708 -1.749708
114.900000 -1.749708 -1.749708
114.950000 -1.749708 -1.749708
115.000000 -1.749708 -1.749708
115.050000 -1.749708 -1.749708
115.100000 -1.749708 -1.749708
115.150000 -1.749708 -1.749708
115.200000 -1.749708 -1.749708
115.250000 -1.749708 -1.749708
115.300000 -1.749708 -1.749708
115.350000 -1.749708 -1.749708
115.400000 -1.749708 -1.749708
115.450000 -1.749708 -1.749708
115.500000 -1.749708 -1.749708
115.550000 -1.749708 -1.749708
115.600000 -1.749708 -1.749708
115.650000 -1.749708 -1.749708
115.700000 -1.749708 -1.749708
115.750000 -1.749708 -1.749708
115.800000 -1.749708 -1.749708
115.850000 -1.749708 -1.749708
115.900000 -1.749708 -1.749708
115.950000 -1.749708 -1.749708
116.000000 -1.749708 -1.749708
116.050000 -1.749708 -1.749708
116.100000 -1.749708 -1.749708
116.150000 -1.749708 -1.749708
116.200000 -1.749708 -1.749708
116.250000 -1.749708 -1.749708
116.300000 -1.749708 -1.749708
116.350000 -1.749708 -1.749708
116.400000 -1.749708 -1.749708
116.450000 -1.749708 -1.749708
116.500000 -1.749708 -1.749708
116.550000 -1.749708 -1.749708
116.600000 -1.749708 -1.749708
116.650000 -1.749708 -1.749708
116.700000 -1.749708 -1.749708
116.750000 -1.749708 -1.749708
116.800000 -1.749708 -1.749708
116.850000 -1.749708 -1.749708
116.900000 -1.749708 -1.749708
116.950000 -1.749708 -1.749708
117.000000 -1.749708 -1.749708
117.050000 -1.749708 -1.749708
117.100000 -1.749708 -1.749708
117.150000 -1.749708 -1.749708
117.200000 -1.749708 -1.749708
117.250000 -1.749708 -1.749708
117.300000 -1.749708 -1.749708
117.350000 -1.749708 -1.749708
117.400000 -1.749708 -1.749708
117.450000 -1.749708 -1.749708
117.500000 -1.749708 -1.749708
117.550000 -1.749708 -1.749708
117.600000 -1.749708 -1.749708
117.650000 -1.749708 -1.749708
117.700000 -1.749708 -1.749708
117.750000 -1.749708 -1.749708
117.800000 -1.749708 -1.749708
117.850000 -1.749708 -1.749708
117.900000 -1.749708 -1.749708
117.950000 -1.749708 -1.749708
118.000000 -1.749708 -1.749708
118.050000 -1.749708 -1.749708
118.100000 -1.749708 -1.749708
118.150000 -1.749708 -1.749708
118.200000 -1.749708 -1.749708
118.250000 -1.749708 -1.749708
118.300000 -1.749708 -1.749708
118.350000 -1.749708 -1.749708
118.400000 -1.749708 -1.749708
118.450000 -1.749708 -1.749708
118.500000 -1.749708 -1.749708
118.550000 -1.749708 -1.749708
118.600000 -1.749708 -1.749708
118.650000 -1.749708 -1.749708
118.700000 -1.749708 -1.749708
118.750000 -1.749708 -1.749708
118.800000 -1.749708 -1.749708
118.850000 -1.749708 -1.749708
118.900000 -1.749708 -1.749708
118.950000 -1.749708 -1.749708
119.000000 -1.749708 -1.749708
119.050000 -1.749708 -1.749708
119.100000 -1.749708 -1.749708
119.150000 -1.749708 -1.749708
119.200000 -1.749708 -1.749708
119.250000 -1.749708 -1.749708
119.300000 -1.749708 -1.749708
119.350000 -1.749708 -1.749708
119.400000 -1.749708 -1.749708
119.450000 -1.749708 -1.749708
119.500000 -1.749708 -1.749708
119.550000 -1.749708 -1.749708
119.600000 -1.749708 -1.749708
119.650000 -1.749708 -1.749708
119.700000 -1.749708 -1.749708
119.750000 -1.749708 -1.749708
119.800000 -1.749708 -1.749708
119.850000 -1.749708 -1.749708
119.900000 -1.749708 -1.749708
119.950000 -1.749708 -1.749708
120.000000 -1.749708 -1.749708
120.050000 -1.749708 -1.749708
120.100000 -1.749708 -1.749708
120.150000 -1.749708 -1.749708
120.200000 -1.749708 -1.749708
120.250000 -1.749708 -1.749708
120.300000 -1.749708 -1.749708
120.350000 -1.749708 -1.749708
120.400000 -1.749708 -1.749708
120.450000 -1.749708 -1.749708
120.500000 -1.749708 -1.749708
120.550000 -1.749708 -1.749708
120.600000 -1.749708 -1.749708
120.650000 -1.749708 -1.749708
120.700000 -1.749708 -1.749708
120.750000 -1.749708 -1.749708
120.800000 -1.749708 -1.749708
120.850000 -1.749708 -1.749708
120.900000 -1.749708 -1.749708
120.950000 -1.749708 -1.749708
121.000000 -1.749708 -1.749708
121.050000 -1.749708 -1.749708
121.100000 -1.749708 -1.749708
121.150000 -1.749708 -1.749708
121.200000 -1.749708 -1.749708
121.250000 -1.749708 -1.749708
121.300000 -1.749708 -1.749708
121.350000 -1.749708 -1.749708
121.400000 -1.749708 -1.749708
121.450000 -1.749708 -1.749708
121.500000 -1.749708 -1.749708
121.550000 -1.749708 -1.749708
121.600000 -1.749708 -1.749708
121.650000 -1.749708 -1.749708
121.700000 -1.749708 -1.749708
121.750000 -1.749708 -1.749708
121.800000 -1.749708 -1.749708
121.850000 -1.749708 -1.749708
121.900000 -1.749708 -1.749708
121.950000 -1.749708 -1.749708
122.000000 -1.749708 -1.749708
122.050000 -1.749708 -1.749708
122.100000 -1.749708 -1.749708
122.150000 -1.749708 -1.749708
122.200000 -1.749708 -1.749708
122.250000 -1.749708 -1.749708
122.300000 -1.749708 -1.749708
122.350000 -1.749708 -1.749708
122.400000 -1.749708 -1.749708
122.450000 -1.749708 -1.749708
122.500000 -1.749708 -1.749708
122.550000 -1.749708 -1.749708
122.600000 -1.749708 -1.749708
122.650000 -1.749708 -1.749708
122.700000 -1.749708 -1.749708
122.750000 -1.749708 -1.749708
122.800000 -1.749708 -1.749708
122.850000 -1.749708 -1.749708
122.900000 -1.749708 -1.749708
122.950000 -1.749708 -1.749708
123.000000 -1.749708 -1.749708
123.050000 -1.749708 -1.749708
123.100000 -1.749708 -1.749708
123.150000 -1.749708 -1.749708
123.200000 -1.749708 -1.749708
123.250000 -1.749708 -1.749708
123.300000 -1.749708 -1.749708
123.350000 -1.749708 -1.749708
123.400000 -1.749708 -1.749708
123.450000 -1.749708 -1.749708
123.500000 -1.749708 -1.749708
123.550000 -1.749708 -1.749708
123.600000 -1.749708 -1.749708
123.650000 -1.749708 -1.749708
123.700000 -1.749708 -1.749708
123.750000 -1.749708 -1.749708
123.800000 -1.749708 -1.749708
123.850000 -1.749708 -1.749708
123.900000 -1.749708 -1.749708
123.950000 -1.749708 -1.749708
124.000000 -1.749708 -1.749708
124.050000 -1.749708 -1.749708
124.100000 -1.749708 -1.749708
124.150000 -1.749708 -1.749708
124.200000 -1.749708 -1.749708
124.250000 -1.749708 -1.749708
124.300000 -1.749708 -1.749708
124.350000 -1.749708 -1.749708
124.400000 -1.749708 -1.749708
124.450000 -1.749708 -1.749708
124.500000 -1.749708 -1.749708
124.550000 -1.749708 -1.749708
124.600000 -1.749708 -1.749708
124.650000 -1.749708 -1.749708
124.700000 -1.749708 -1.749708
124.750000 -1.749708 -1.749708
124.800000 -1.749708 -1.749708
124.850000 -1.749708 -1.749708
124.900000 -1.749708 -1.749708
124.950000 -1.749708 -1.749708
125.000000 -1.749708 -1.749708
125.050000 -1.749708 -1.749708
125.100000 -1.749708 -1.749708
125.150000 -1.749708 -1.749708
125.200000 -1.749708 -1.749708
125.250000 -1.749708 -1.749708
125.300000 -1.749708 -1.749708
125.350000 -1.749708 -1.749708
125.400000 -1.749708 -1.749708
125.450000 -1.749708 -1.749708
125.500000 -1.749708 -1.749708
125.550000 -1.749708 -1.749708
125.600000 -1.749708 -1.749708
125.650000 -1.749708 -1.749708
125.700000 -1.749708 -1.749708
125.750000 -1.749708 -1.749708
125.800000 -1.749708 -1.749708
125.850000 -1.749708 -1.749708
125.900000 -1.749708 -1.749708
125.950000 -1.749708 -1.749708
126.000000 -1.749708 -1.749708
126.050000 -1.749708 -1.749708
126.100000 -1.749708 -1.749708
126.150000 -1.749708 -1.749708
126.200000 -1.749708 -1.749708
126.250000 -1.749708 -1.749708
126.300000 -1.749708 -1.749708
126.350000 -1.749708 -1.749708
126.400000 -1.749708 -1.749708
126.450000 -1.749708 -1.749708
126.500000 -1.749708 -1.749708
126.550000 -1.749708 -1.749708
126.600000 -1.749708 -1.749708
126.650000 -1.749708 -1.749708
126.700000 -1.749708 -1.749708
126.750000 -1.749708 -1.749708
126.800000 -1.749708 -1.749708
126.850000 -1.749708 -1.749708
126.900000 -1.749708 -1.749708
126.950000 -1.749708 -1.749708
127.000000 -1.749708 -1.749708
127.050000 -1.749708 -1.749708
127.100000 -1.749708 -1.749708
127.150000 -1.749708 -1.749708
127.200000 -1.749708 -1.749708
127.250000 -1.749708 -1.749708
127.300000 -1.749708 -1.749708
127.350000 -1.749708 -1.749708
127.400000 -1.749708 -1.749708
127.450000 -1.749708 -1.749708
127.500000 -1.749708 -1.749708
127.550000 -1.749708 -1.749708
127.600000 -1.749708 -1.749708
127.650000 -1.749708 -1.749708
127.700000 -1.749708 -1.749708
127.750000 -1.749708 -1.749708
127.800000 -1.749708 -1.749708
127.850000 -1.749708 -1.749708
127.900000 -1.749708 -1.749708
127.950000 -1.749708 -1.749708
128.000000 -1.749708 -1.749708
128.050000 -1.749708 -1.749708
128.100000 -1.749708 -1.749708
128.150000 -1.749708 -1.749708
128.200000 -1.749708 -1.749708
128.250000 -1.749708 -1.749708
128.300000 -1.749708 -1.749708
128.350000 -1.749708 -1.749708
128.400000 -1.749708 -1.749708
128.450000 -1.749708 -1.749708
128.500000 -1.749708 -1.749708
128.550000 -1.749708 -1.749708
128.600000 -1.749708 -1.749708
128.650000 -1.749708 -1.749708
128.700000 -1.749708 -1.749708
128.750000 -1.749708 -1.749708
128.800000 -1.749708 -1.749708
128.850000 -1.749708 -1.749708
128.900000 -1.749708 -1.749708
128.950000 -1.749708 -1.749708
129.000000 -1.749708 -1.749708
129.050000 -1.749708 -1.749708
129.100000 -1.749708 -1.749708
129.150000 -1.749708 -1.749708
129.200000 -1.749708 -1.749708
129.250000 -1.749708 -1.749708
129.300000 -1.749708 -1.749708
129.350000 -1.749708 -1.749708
129.400000 -1.749708 -1.749708
129.450000 -1.749708 -1.749708
129.500000 -1.749708 -1.749708
129.550000 -1.749708 -1.749708
129.600000 -1.749708 -1.749708
129.650000 -1.749708 -1.749708
129.700000 -1.749708 -1.749708
129.750000 -1.749708 -1.749708
129.800000 -1.749708 -1.749708
129.850000 -1.749708 -1.749708
129.900000 -1.749708 -1.749708
129.950000 -1.749708 -1.749708
130.000000 -1.749708 -1.749708
130.050000 -1.749708 -1.749708
130.100000 -1.749708 -1.749708
130.150000 -1.749708 -1.749708
130.200000 -1.749708 -1.749708
130.250000 -1.749708 -1.749708
130.300000 -1.749708 -1.749708
130.350000 -1.749708 -1.749708
130.400000 -1.749708 -1.749708
130.450000 -1.749708 -1.749708
130.500000 -1.749708 -1.749708
130.550000 -1.749708 -1.749708
130.600000 -1.749708 -1.749708
130.650000 -1.749708 -1.749708
130.700000 -1.749708 -1.749708
130.750000 -1.749708 -1.749708
130.800000 -1.749708 -1.749708
130.850000 -1.749708 -1.749708
130.900000 -1.749708 -1.749708
130.950000 -1.749708 -1.749708
131.000000 -1.749708 -1.749708
131.050000 -1.749708 -1.749708
131.100000 -1.749708 -1.749708
131.150000 -1.749708 -1.749708
131.200000 -1.749708 -1.749708
131.250000 -1.749708 -1.749708
131.300000 -1.749708 -1.749708
131.350000 -1.749708 -1.749708
131.400000 -1.749708 -1.749708
131.450000 -1.749708 -1.749708
131.500000 -1.749708 -1.749708
131.550000 -1.749708 -1.749708
131.600000 -1.749708 -1.749708
131.650000 -1.749708 -1.749708
131.700000 -1.749708 -1.749708
131.750000 -1.749708 -1.749708
131.800000 -1.749708 -1.749708
131.850000 -1.749708 -1.749708
131.900000 -1.749708 -1.749708
131.950000 -1.749708 -1.749708
132.000000 -1.749708 -1.749708
132.050000 -1.749708 -1.749708
132.100000 -1.749708 -1.749708
132.150000 -1.749708 -1.749708
132.200000 -1.749708 -1.749708
132.250000 -1.749708 -1.749708
132.300000 -1.749708 -1.749708
132.350000 -1.749708 -1.749708
132.400000 -1.749708 -1.749708
132.450000 -1.749708 -1.749708
132.500000 -1.749708 -1.749708
132.550000 -1.749708 -1.749708
132.600000 -1.749708 -1.749708
132.650000 -1.749708 -1.749708
132.700000 -1.749708 -1.749708
132.750000 -1.749708 -1.749708
132.800000 -1.749708 -1.749708
132.850000 -1.749708 -1.749708
132.900000 -1.749708 -1.749708
132.950000 -1.749708 -1.749708
133.000000 -1.749708 -1.749708
133.050000 -1.749708 -1.749708
133.100000 -1.749708 -1.749708
133.150000 -1.749708 -1.749708
133.200000 -1.749708 -1.749708
133.250000 -1.749708 -1.749708
133.300000 -1.749708 -1.749708
133.350000 -1.749708 -1.749708
133.400000 -1.749708 -1.749708
133.450000 -1.749708 -1.749708
133.500000 -1.749708 -1.749708
133.550000 -1.749708 -1.749708
133.600000 -1.749708 -1.749708
133.650000 -1.749708 -1.749708
133.700000 -1.749708 -1.749708
133.750000 -1.749708 -1.749708
133.800000 -1.749708 -1.749708
133.850000 -1.749708 -1.749708
133.900000 -1.749708 -1.749708
133.950000 -1.749708 -1.749708
134.000000 -1.749708 -1.749708
134.050000 -1.749708 -1.749708
134.100000 -1.749708 -1.749708
134.150000 -1.749708 -1.749708
134.200000 -1.749708 -1.749708
134.250000 -1.749708 -1.749708
134.300000 -1.749708 -1.749708
134.350000 -1.749708 -1.749708
134.400000 -1.749708 -1.749708
134.450000 -1.749708 -1.749708
134.500000 -1.749708 -1.749708
134.550000 -1.749708 -1.749708
134.600000 -1.749708 -1.749708
134.650000 -1.749708 -1.749708
134.700000 -1.749708 -1.749708
134.750000 -1.749708 -1.749708
134.800000 -1.749708 -1.749708
134.850000 -1.749708 -1.749708
134.900000 -1.749708 -1.749708
134.950000 -1.749708 -1.749708
135.000000 -1.749708 -1.749708
135.050000 -1.749708 -1.749708
135.100000 -1.749708 -1.749708
135.150000 -1.749708 -1.749708
135.200000 -1.749708 -1.749708
135.250000 -1.749708 -1.749708
135.300000 -1.749708 -1.749708
135.350000 -1.749708 -1.749708
135.400000 -1.749708 -1.749708
135.450000 -1.749708 -1.749708
135.500000 -1.749708 -1.749708
135.550000 -1.749708 -1.749708
135.600000 -1.749708 -1.749708
135.650000 -1.749708 -1.749708
135.700000 -1.749708 -1.749708
135.750000 -1.749708 -1.749708
135.800000 -1.749708 -1.749708
135.850000 -1.749708 -1.749708
135.900000 -1.749708 -1.749708
135.950000 -1.749708 -1.749708
136.000000 -1.749708 -1.749708
136.050000 -1.749708 -1.749708
136.100000 -1.749708 -1.749708
136.150000 -1.749708 -1.749708
136.200000 -1.749708 -1.749708
136.250000 -1.749708 -1.749708
136.300000 -1.749708 -1.749708
136.350000 -1.749708 -1.749708
136.400000 -1.749708 -1.749708
136.450000 -1.749708 -1.749708
136.500000 -1.749708 -1.749708
136.550000 -1.749708 -1.749708
136.600000 -1.749708 -1.749708
136.650000 -1.749708 -1.749708
136.700000 -1.749708 -1.749708
136.750000 -1.749708 -1.749708
136.800000 -1.749708 -1.749708
136.850000 -1.749708 -1.749708
136.900000 -1.749708 -1.749708
136.950000 -1.749708 -1.749708
137.000000 -1.749708 -1.749708
137.050000 -1.749708 -1.749708
137.100000 -1.749708 -1.749708
137.150000 -1.749708 -1.749708
137.200000 -1.749708 -1.749708
137.250000 -1.749708 -1.749708
137.300000 -1.749708 -1.749708
137.350000 -1.749708 -1.749708
137.400000 -1.749708 -1.749708
137.450000 -1.749708 -1.749708
137.500000 -1.749708 -1.749708
137.550000 -1.749708 -1.749708
137.600000 -1.749708 -1.749708
137.650000 -1.749708 -1.749708
137.700000 -1.749708 -1.749708
137.750000 -1.749708 -1.749708
137.800000 -1.749708 -1.749708
137.850000 -1.749708 -1.749708
137.900000 -1.749708 -1.749708
137.950000 -1.749708 -1.749708
138.000000 -1.749708 -1.749708
138.050000 -1.749708 -1.749708
138.100000 -1.749708 -1.749708
138.150000 -1.749708 -1.749708
138.200000 -1.749708 -1.749708
138.250000 -1.749708 -1.749708
138.300000 -1.749708 -1.749708
138.350000 -1.749708 -1.749708
138.400000 -1.749708 -1.749708
138.450000 -1.749708 -1.749708
138.500000 -1.749708 -1.749708
138.550000 -1.749708 -1.749708
138.600000 -1.749708 -1.749708
138.650000 -1.749708 -1.749708
138.700000 -1.749708 -1.749708
138.750000 -1.749708 -1.749708
138.800000 -1.749708 -1.749708
138.850000 -1.749708 -1.749708
138.900000 -1.749708 -1.749708
138.950000 -1.749708 -1.749708
139.000000 -1.749708 -1.749708
139.050000 -1.749708 -1.749708
139.100000 -1.749708 -1.749708
139.150000 -1.749708 -1.749708
139.200000 -1.749708 -1.749708
139.250000 -1.749708 -1.749708
139.300000 -1.749708 -1.749708
139.350000 -1.749708 -1.749708
139.400000 -1.749708 -1.749708
139.450000 -1.749708 -1.749708
139.500000 -1.749708 -1.749708
139.550000 -1.749708 -1.749708
139.600000 -1.749708 -1.749708
139.650000 -1.749708 -1.749708
139.700000 -1.749708 -1.749708
139.750000 -1.749708 -1.749708
139.800000 -1.749708 -1.749708
139.850000 -1.749708 -1.749708
139.900000 -1.749708 -1.749708
139.950000 -1.749708 -1.749708
140.000000 -1.749708 -1.749708
140.050000 -1.749708 -1.749708
140.100000 -1.749708 -1.749708
140.150000 -1.749708 -1.749708
140.200000 -1.749708 -1.749708
140.250000 -1.749708 -1.749708
140.300000 -1.749708 -1.749708
140.350000 -1.749708 -1.749708
140.400000 -1.749708 -1.749708
140.450000 -1.749708 -1.749708
140.500000 -1.749708 -1.749708
140.550000 -1.749708 -1.749708
140.600000 -1.749708 -1.749708
140.650000 -1.749708 -1.749708
140.700000 -1.749708 -1.749708
140.750000 -1.749708 -1.749708
140.800000 -1.749708 -1.749708
140.850000 -1.749708 -1.749708
140.900000 -1.749708 -1.749708
140.950000 -1.749708 -1.749708
141.000000 -1.749708 -1.749708
141.050000 -1.749708 -1.749708
141.100000 -1.749708 -1.749708
141.150000 -1.749708 -1.749708
141.200000 -1.749708 -1.749708
141.250000 -1.749708 -1.749708
141.300000 -1.749708 -1.749708
141.350000 -1.749708 -1.749708
141.400000 -1.749708 -1.749708
141.450000 -1.749708 -1.749708
141.500000 -1.749708 -1.749708
141.550000 -1.749708 -1.749708
141.600000 -1.749708 -1.749708
141.650000 -1.749708 -1.749708
141.700000 -1.749708 -1.749708
141.750000 -1.749708 -1.749708
141.800000 -1.749708 -1.749708
141.850000 -1.749708 -1.749708
141.900000 -1.749708 -1.749708
141.950000 -1.749708 -1.749708
142.000000 -1.749708 -1.749708
142.050000 -1.749708 -1.749708
142.100000 -1.749708 -1.749708
142.150000 -1.749708 -1.749708
142.200000 -1.749708 -1.749708
142.250000 -1.749708 -1.749708
142.300000 -1.749708 -1.749708
142.350000 -1.749708 -1.749708
142.400000 -1.749708 -1.749708
142.450000 -1.749708 -1.749708
142.500000 -1.749708 -1.749708
142.550000 -1.749708 -1.749708
142.600000 -1.749708 -1.749708
142.650000 -1.749708 -1.749708
142.700000 -1.749708 -1.749708
142.750000 -1.749708 -1.749708
142.800000 -1.749708 -1.749708
142.850000 -1.749708 -1.749708
142.900000 -1.749708 -1.749708
142.950000 -1.749708 -1.749708
143.000000 -1.749708 -1.749708
143.050000 -1.749708 -1.749708
143.100000 -1.749708 -1.749708
143.150000 -1.749708 -1.749708
143.200000 -1.749708 -1.749708
143.250000 -1.749708 -1.749708
143.300000 -1.749708 -1.749708
143.350000 -1.749708 -1.749708
143.400000 -1.749708 -1.749708
143.450000 -1.749708 -1.749708
143.500000 -1.749708 -1.749708
143.550000 -1.749708 -1.749708
143.600000 -1.749708 -1.749708
143.650000 -1.749708 -1.749708
143.700000 -1.749708 -1.749708
143.750000 -1.749708 -1.749708
143.800000 -1.749708 -1.749708
143.850000 -1.749708 -1.749708
143.900000 -1.749708 -1.749708
143.950000 -1.749708 -1.749708
144.000000 -1.749708 -1.749708
144.050000 -1.749708 -1.749708
144.100000 -1.749708 -1.749708
144.150000 -1.749708 -1.749708
144.200000 -1.749708 -1.749708
144.250000 -1.749708 -1.749708
144.300000 -1.749708 -1.749708
144.350000 -1.749708 -1.749708
144.400000 -1.749708 -1.749708
144.450000 -1.749708 -1.749708
144.500000 -1.749708 -1.749708
144.550000 -1.749708 -1.749708
144.600000 -1.749708 -1.749708
144.650000 -1.749708 -1.749708
144.700000 -1.749708 -1.749708
144.750000 -1.749708 -1.749708
144.800000 -1.749708 -1.749708
144.850000 -1.749708 -1.749708
144.900000 -1.749708 -1.749708
144.950000 -1.749708 -1.749708
145.000000 -1.749708 -1.749708
145.050000 -1.749708 -1.749708
145.100000 -1.749708 -1.749708
145.150000 -1.749708 -1.749708
145.200000 -1.749708 -1.749708
145.250000 -1.749708 -1.749708
145.300000 -1.749708 -1.749708
145.350000 -1.749708 -1.749708
145.400000 -1.749708 -1.749708
145.450000 -1.749708 -1.749708
145.500000 -1.749708 -1.749708
145.550000 -1.749708 -1.749708
145.600000 -1.749708 -1.749708
145.650000 -1.749708 -1.749708
145.700000 -1.749708 -1.749708
145.750000 -1.749708 -1.749708
145.800000 -1.749708 -1.749708
145.850000 -1.749708 -1.749708
145.900000 -1.749708 -1.749708
145.950000 -1.749708 -1.749708
146.000000 -1.749708 -1.749708
146.050000 -1.749708 -1.749708
146.100000 -1.749708 -1.749708
146.150000 -1.749708 -1.749708
146.200000 -1.749708 -1.749708
146.250000 -1.749708 -1.749708
146.300000 -1.749708 -1.749708
146.350000 -1.749708 -1.749708
146.400000 -1.749708 -1.749708
146.450000 -1.749708 -1.749708
146.500000 -1.749708 -1.749708
146.550000 -1.749708 -1.749708
146.600000 -1.749708 -1.749708
146.650000 -1.749708 -1.749708
146.700000 -1.749708 -1.749708
146.750000 -1.749708 -1.749708
146.800000 -1.749708 -1.749708
146.850000 -1.749708 -1.749708
146.900000 -1.749708 -1.749708
146.950000 -1.749708 -1.749708
147.000000 -1.749708 -1.749708
147.050000 -1.749708 -1.749708
147.100000 -1.749708 -1.749708
147.150000 -1.749708 -1.749708
147.200000 -1.749708 -1.749708
147.250000 -1.749708 -1.749708
147.300000 -1.749708 -1.749708
147.350000 -1.749708 -1.749708
147.400000 -1.749708 -1.749708
147.450000 -1.749708 -1.749708
147.500000 -1.749708 -1.749708
147.550000 -1.749708 -1.749708
147.600000 -1.749708 -1.749708
147.650000 -1.749708 -1.749708
147.700000 -1.749708 -1.749708
147.750000 -1.749708 -1.749708
147.800000 -1.749708 -1.749708
147.850000 -1.749708 -1.749708
147.900000 -1.749708 -1.749708
147.950000 -1.749708 -1.749708
148.000000 -1.749708 -1.749708
148.050000 -1.749708 -1.749708
148.100000 -1.749708 -1.749708
148.150000 -1.749708 -1.749708
148.200000 -1.749708 -1.749708
148.250000 -1.749708 -1.749708
148.300000 -1.749708 -1.749708
148.350000 -1.749708 -1.749708
148.400000 -1.749708 -1.749708
148.450000 -1.749708 -1.749708
148.500000 -1.749708 -1.749708
148.550000 -1.749708 -1.749708
148.600000 -1.749708 -1.749708
148.650000 -1.749708 -1.749708
148.700000 -1.749708 -1.749708
148.750000 -1.749708 -1.749708
148.800000 -1.749708 -1.749708
148.850000 -1.749708 -1.749708
148.900000 -1.749708 -1.749708
148.950000 -1.749708 -1.749708
149.000000 -1.749708 -1.749708
149.050000 -1.749708 -1.749708
149.100000 -1.749708 -1.749708
149.150000 -1.749708 -1.749708
149.200000 -1.749708 -1.749708
149.250000 -1.749708 -1.749708
149.300000 -1.749708 -1.749708
149.350000 -1.749708 -1.749708
149.400000 -1.749708 -1.749708
149.450000 -1.749708 -1.749708
149.500000 -1.749708 -1.749708
149.550000 -1.749708 -1.749708
149.600000 -1.749708 -1.749708
149.650000 -1.749708 -1.749708
149.700000 -1.749708 -1.749708
149.750000 -1.749708 -1.749708
149.800000 -1.749708 -1.749708
149.850000 -1.749708 -1.749708
149.900000 -1.749708 -1.749708
149.950000 -1.749708 -1.749708
150.000000 -1.749708 -1.749708
150.050000 -1.749708 -1.749708
150.100000 -1.749708 -1.749708
150.150000 -1.749708 -1.749708
150.200000 -1.749708 -1.749708
150.250000 -1.749708 -1.749708
150.300000 -1.749708 -1.749708
150.350000 -1.749708 -1.749708
150.400000 -1.749708 -1.749708
150.450000 -1.749708 -1.749708
150.500000 -1.749708 -1.749708
150.550000 -1.749708 -1.749708
150.600000 -1.749708 -1.749708
150.650000 -1.749708 -1.749708
150.700000 -1.749708 -1.749708
150.750000 -1.749708 -1.749708
150.800000 -1.749708 -1.749708
150.850000 -1.749708 -1.749708
150.900000 -1.749708 -1.749708
150.950000 -1.749708 -1.749708
151.000000 -1.749708 -1.749708
151.050000 -1.749708 -1.749708
151.100000 -1.749708 -1.749708
151.150000 -1.749708 -1.749708
151.200000 -1.749708 -1.749708
151.250000 -1.749708 -1.749708
151.300000 -1.749708 -1.749708
151.350000 -1.749708 -1.749708
151.400000 -1.749708 -1.749708
151.450000 -1.749708 -1.749708
151.500000 -1.749708 -1.749708
151.550000 -1.749708 -1.749708
151.600000 -1.749708 -1.749708
151.650000 -1.749708 -1.749708
151.700000 -1.749708 -1.749708
151.750000 -1.749708 -1.749708
151.800000 -1.749708 -1.749708
151.850000 -1.749708 -1.749708
151.900000 -1.749708 -1.749708
151.950000 -1.749708 -1.749708
152.000000 -1.749708 -1.749708
152.050000 -1.749708 -1.749708
152.100000 -1.749708 -1.749708
152.150000 -1.749708 -1.749708
152.200000 -1.749708 -1.749708
152.250000 -1.749708 -1.749708
152.300000 -1.749708 -1.749708
152.350000 -1.749708 -1.749708
152.400000 -1.749708 -1.749708
152.450000 -1.749708 -1.749708
152.500000 -1.749708 -1.749708
152.550000 -1.749708 -1.749708
152.600000 -1.749708 -1.749708
152.650000 -1.749708 -1.749708
152.700000 -1.749708 -1.749708
152.750000 -1.749708 -1.749708
152.800000 -1.749708 -1.749708
152.850000 -1.749708 -1.749708
152.900000 -1.749708 -1.749708
152.950000 -1.749708 -1.749708
153.000000 -1.749708 -1.749708
153.050000 -1.749708 -1.749708
153.100000 -1.749708 -1.749708
153.150000 -1.749708 -1.749708
153.200000 -1.749708 -1.749708
153.250000 -1.749708 -1.749708
153.300000 -1.749708 -1.749708
153.350000 -1.749708 -1.749708
153.400000 -1.749708 -1.749708
153.450000 -1.749708 -1.749708
153.500000 -1.749708 -1.749708
153.550000 -1.749708 -1.749708
153.600000 -1.749708 -1.749708
153.650000 -1.749708 -1.749708
153.700000 -1.749708 -1.749708
153.750000 -1.749708 -1.749708
153.800000 -1.749708 -1.749708
153.850000 -1.749708 -1.749708
153.900000 -1.749708 -1.749708
153.950000 -1.749708 -1.749708
154.000000 -1.749708 -1.749708
154.050000 -1.749708 -1.749708
154.100000 -1.749708 -1.749708
154.150000 -1.749708 -1.749708
154.200000 -1.749708 -1.749708
154.250000 -1.749708 -1.749708
154.300000 -1.749708 -1.749708
154.350000 -1.749708 -1.749708
154.400000 -1.749708 -1.749708
154.450000 -1.749708 -1.749708
154.500000 -1.749708 -1.749708
154.550000 -1.749708 -1.749708
154.600000 -1.749708 -1.749708
154.650000 -1.749708 -1.749708
154.700000 -1.749708 -1.749708
154.750000 -1.749708 -1.749708
154.800000 -1.749708 -1.749708
154.850000 -1.749708 -1.749708
154.900000 -1.749708 -1.749708
154.950000 -1.749708 -1.749708
155.000000 -1.749708 -1.749708
155.050000 -1.749708 -1.749708
155.100000 -1.749708 -1.749708
155.150000 -1.749708 -1.749708
155.200000 -1.749708 -1.749708
155.250000 -1.749708 -1.749708
155.300000 -1.749708 -1.749708
155.350000 -1.749708 -1.749708
155.400000 -1.749708 -1.749708
155.450000 -1.749708 -1.749708
155.500000 -1.749708 -1.749708
155.550000 -1.749708 -1.749708
155.600000 -1.749708 -1.749708
155.650000 -1.749708 -1.749708
155.700000 -1.749708 -1.749708
155.750000 -1.749708 -1.749708
155.800000 -1.749708 -1.749708
155.850000 -1.749708 -1.749708
155.900000 -1.749708 -1.749708
155.950000 -1.749708 -1.749708
156.000000 -1.749708 -1.749708
156.050000 -1.749708 -1.749708
156.100000 -1.749708 -1.749708
156.150000 -1.749708 -1.749708
156.200000 -1.749708 -1.749708
156.250000 -1.749708 -1.749708
156.300000 -1.749708 -1.749708
156.350000 -1.749708 -1.749708
156.400000 -1.749708 -1.749708
156.450000 -1.749708 -1.749708
156.500000 -1.749708 -1.749708
156.550000 -1.749708 -1.749708
156.600000 -1.749708 -1.749708
156.650000 -1.749708 -1.749708
156.700000 -1.749708 -1.749708
156.750000 -1.749708 -1.749708
156.800000 -1.749708 -1.749708
156.850000 -1.749708 -1.749708
156.900000 -1.749708 -1.749708
156.950000 -1.749708 -1.749708
157.000000 -1.749708 -1.749708
157.050000 -1.749708 -1.749708
157.100000 -1.749708 -1.749708
157.150000 -1.749708 -1.749708
157.200000 -1.749708 -1.749708
157.250000 -1.749708 -1.749708
157.300000 -1.749708 -1.749708
157.350000 -1.749708 -1.749708
157.400000 -1.749708 -1.749708
157.450000 -1.749708 -1.749708
157.500000 -1.749708 -1.749708
157.550000 -1.749708 -1.749708
157.600000 -1.749708 -1.749708
157.650000 -1.749708 -1.749708
157.700000 -1.749708 -1.749708
157.750000 -1.749708 -1.749708
157.800000 -1.749708 -1.749708
157.850000 -1.749708 -1.749708
157.900000 -1.749708 -1.749708
157.950000 -1.749708 -1.749708
158.000000 -1.749708 -1.749708
158.050000 -1.749708 -1.749708
158.100000 -1.749708 -1.749708
158.150000 -1.749708 -1.749708
158.200000 -1.749708 -1.749708
158.250000 -1.749708 -1.749708
158.300000 -1.749708 -1.749708
158.350000 -1.749708 -1.749708
158.400000 -1.749708 -1.749708
158.450000 -1.749708 -1.749708
158.500000 -1.749708 -1.749708
158.550000 -1.749708 -1.749708
158.600000 -1.749708 -1.749708
158.650000 -1.749708 -1.749708
158.700000 -1.749708 -1.749708
158.750000 -1.749708 -1.749708
158.800000 -1.749708 -1.749708
158.850000 -1.749708 -1.749708
158.900000 -1.749708 -1.749708
158.950000 -1.749708 -1.749708
159.000000 -1.749708 -1.749708
159.050000 -1.749708 -1.749708
159.100000 -1.749708 -1.749708
159.150000 -1.749708 -1.749708
159.200000 -1.749708 -1.749708
159.250000 -1.749708 -1.749708
159.300000 -1.749708 -1.749708
159.350000 -1.749708 -1.749708
159.400000 -1.749708 -1.749708
159.450000 -1.749708 -1.749708
159.500000 -1.749708 -1.749708
159.550000 -1.749708 -1.749708
159.600000 -1.749708 -1.749708
159.650000 -1.749708 -1.749708
159.700000 -1.749708 -1.749708
159.750000 -1.749708 -1.749708
159.800000 -1.749708 -1.749708
159.850000 -1.749708 -1.749708
159.900000 -1.749708 -1.749708
159.950000 -1.749708 -1.749708
160.000000 -1.749708 -1.749708
160.050000 -1.749708 -1.749708
160.100000 -1.749708 -1.749708
160.150000 -1.749708 -1.749708
160.200000 -1.749708 -1.749708
160.250000 -1.749708 -1.749708
160.300000 -1.749708 -1.749708
160.350000 -1.749708 -1.749708
160.400000 -1.749708 -1.749708
160.450000 -1.749708 -1.749708
160.500000 -1.749708 -1.749708
160.550000 -1.749708 -1.749708
160.600000 -1.749708 -1.749708
160.650000 -1.749708 -1.749708
160.700000 -1.749708 -1.749708
160.750000 -1.749708 -1.749708
160.800000 -1.749708 -1.749708
160.850000 -1.749708 -1.749708
160.900000 -1.749708 -1.749708
160.950000 -1.749708 -1.749708
161.000000 -1.749708 -1.749708
161.050000 -1.749708 -1.749708
161.100000 -1.749708 -1.749708
161.150000 -1.749708 -1.749708
161.200000 -1.749708 -1.749708
161.250000 -1.749708 -1.749708
161.300000 -1.749708 -1.749708
161.350000 -1.749708 -1.749708
161.400000 -1.749708 -1.749708
161.450000 -1.749708 -1.749708
161.500000 -1.749708 -1.749708
161.550000 -1.749708 -1.749708
161.600000 -1.749708 -1.749708
161.650000 -1.749708 -1.749708
161.700000 -1.749708 -1.749708
161.750000 -1.749708 -1.749708
161.800000 -1.749708 -1.749708
161.850000 -1.749708 -1.749708
161.900000 -1.749708 -1.749708
161.950000 -1.749708 -1.749708
162.000000 -1.749708 -1.749708
162.050000 -1.749708 -1.749708
162.100000 -1.749708 -1.749708
162.150000 -1.749708 -1.749708
162.200000 -1.749708 -1.749708
162.250000 -1.749708 -1.749708
162.300000 -1.749708 -1.749708
162.350000 -1.749708 -1.749708
162.400000 -1.749708 -1.749708
162.450000 -1.749708 -1.749708
162.500000 -1.749708 -1.749708
162.550000 -1.749708 -1.749708
162.600000 -1.749708 -1.749708
162.650000 -1.749708 -1.749708
162.700000 -1.749708 -1.749708
162.750000 -1.749708 -1.749708
162.800000 -1.749708 -1.749708
162.850000 -1.749708 -1.749708
162.900000 -1.749708 -1.749708
162.950000 -1.749708 -1.749708
163.000000 -1.749708 -1.749708
163.050000 -1.749708 -1.749708
163.100000 -1.749708 -1.749708
163.150000 -1.749708 -1.749708
163.200000 -1.749708 -1.749708
163.250000 -1.749708 -1.749708
163.300000 -1.749708 -1.749708
163.350000 -1.749708 -1.749708
163.400000 -1.749708 -1.749708
163.450000 -1.749708 -1.749708
163.500000 -1.749708 -1.749708
163.550000 -1.749708 -1.749708
163.600000 -1.749708 -1.749708
163.650000 -1.749708 -1.749708
163.700000 -1.749708 -1.749708
163.750000 -1.749708 -1.749708
163.800000 -1.749708 -1.749708
163.850000 -1.749708 -1.749708
163.900000 -1.749708 -1.749708
163.950000 -1.749708 -1.749708
164.000000 -1.749708 -1.749708
164.050000 -1.749708 -1.749708
164.100000 -1.749708 -1.749708
164.150000 -1.749708 -1.749708
164.200000 -1.749708 -1.749708
164.250000 -1.749708 -1.749708
164.300000 -1.749708 -1.749708
164.350000 -1.749708 -1.749708
164.400000 -1.749708 -1.749708
164.450000 -1.749708 -1.749708
164.500000 -1.749708 -1.749708
164.550000 -1.749708 -1.749708
164.600000 -1.749708 -1.749708
164.650000 -1.749708 -1.749708
164.700000 -1.749708 -1.749708
164.750000 -1.749708 -1.749708
164.800000 -1.749708 -1.749708
164.850000 -1.749708 -1.749708
164.900000 -1.749708 -1.749708
164.950000 -1.749708 -1.749708
165.000000 -1.749708 -1.749708
165.050000 -1.749708 -1.749708
165.100000 -1.749708 -1.749708
165.150000 -1.749708 -1.749708
165.200000 -1.749708 -1.749708
165.250000 -1.749708 -1.749708
165.300000 -1.749708 -1.749708
165.350000 -1.749708 -1.749708
165.400000 -1.749708 -1.749708
165.450000 -1.749708 -1.749708
165.500000 -1.749708 -1.749708
165.550000 -1.749708 -1.749708
165.600000 -1.749708 -1.749708
165.650000 -1.749708 -1.749708
165.700000 -1.749708 -1.749708
165.750000 -1.749708 -1.749708
165.800000 -1.749708 -1.749708
165.850000 -1.749708 -1.749708
165.900000 -1.749708 -1.749708
165.950000 -1.749708 -1.749708
166.000000 -1.749708 -1.749708
166.050000 -1.749708 -1.749708
166.100000 -1.749708 -1.749708
166.150000 -1.749708 -1.749708
166.200000 -1.749708 -1.749708
166.250000 -1.749708 -1.749708
166.300000 -1.749708 -1.749708
166.350000 -1.749708 -1.749708
166.400000 -1.749708 -1.749708
166.450000 -1.749708 -1.749708
166.500000 -1.749708 -1.749708
166.550000 -1.749708 -1.749708
166.600000 -1.749708 -1.749708
166.650000 -1.749708 -1.749708
166.700000 -1.749708 -1.749708
166.750000 -1.749708 -1.749708
166.800000 -1.749708 -1.749708
166.850000 -1.749708 -1.749708
166.900000 -1.749708 -1.749708
166.950000 -1.749708 -1.749708
167.000000 -1.749708 -1.749708
167.050000 -1.749708 -1.749708
167.100000 -1.749708 -1.749708
167.150000 -1.749708 -1.749708
167.200000 -1.749708 -1.749708
167.250000 -1.749708 -1.749708
167.300000 -1.749708 -1.749708
167.350000 -1.749708 -1.749708
167.400000 -1.749708 -1.749708
167.450000 -1.749708 -1.749708
167.500000 -1.749708 -1.749708
167.550000 -1.749708 -1.749708
167.600000 -1.749708 -1.749708
167.650000 -1.749708 -1.749708
167.700000 -1.749708 -1.749708
167.750000 -1.749708 -1.749708
167.800000 -1.749708 -1.749708
167.850000 -1.749708 -1.749708
167.900000 -1.749708 -1.749708
167.950000 -1.749708 -1.749708
168.000000 -1.749708 -1.749708
168.050000 -1.749708 -1.749708
168.100000 -1.749708 -1.749708
168.150000 -1.749708 -1.749708
168.200000 -1.749708 -1.749708
168.250000 -1.749708 -1.749708
168.300000 -1.749708 -1.749708
168.350000 -1.749708 -1.749708
168.400000 -1.749708 -1.749708
168.450000 -1.749708 -1.749708
168.500000 -1.749708 -1.749708
168.550000 -1.749708 -1.749708
168.600000 -1.749708 -1.749708
168.650000 -1.749708 -1.749708
168.700000 -1.749708 -1.749708
168.750000 -1.749708 -1.749708
168.800000 -1.749708 -1.749708
168.850000 -1.749708 -1.749708
168.900000 -1.749708 -1.749708
168.950000 -1.749708 -1.749708
169.000000 -1.749708 -1.749708
169.050000 -1.749708 -1.749708
169.100000 -1.749708 -1.749708
169.150000 -1.749708 -1.749708
169.200000 -1.749708 -1.749708
169.250000 -1.749708 -1.749708
169.300000 -1.749708 -1.749708
169.350000 -1.749708 -1.749708
169.400000 -1.749708 -1.749708
169.450000 -1.749708 -1.749708
169.500000 -1.749708 -1.749708
169.550000 -1.749708 -1.749708
169.600000 -1.749708 -1.749708
169.650000 -1.749708 -1.749708
169.700000 -1.749708 -1.749708
169.750000 -1.749708 -1.749708
169.800000 -1.749708 -1.749708
169.850000 -1.749708 -1.749708
169.900000 -1.749708 -1.749708
169.950000 -1.749708 -1.749708
170.000000 -1.749708 -1.749708
170.050000 -1.749708 -1.749708
170.100000 -1.749708 -1.749708
170.150000 -1.749708 -1.749708
170.200000 -1.749708 -1.749708
170.250000 -1.749708 -1.749708
170.300000 -1.749708 -1.749708
170.350000 -1.749708 -1.749708
170.400000 -1.749708 -1.749708
170.450000 -1.749708 -1.749708
170.500000 -1.749708 -1.749708
170.550000 -1.749708 -1.749708
170.600000 -1.749708 -1.749708
170.650000 -1.749708 -1.749708
170.700000 -1.749708 -1.749708
170.750000 -1.749708 -1.749708
170.800000 -1.749708 -1.749708
170.850000 -1.749708 -1.749708
170.900000 -1.749708 -1.749708
170.950000 -1.749708 -1.749708
171.000000 -1.749708 -1.749708
171.050000 -1.749708 -1.749708
171.100000 -1.749708 -1.749708
171.150000 -1.749708 -1.749708
171.200000 -1.749708 -1.749708
171.250000 -1.749708 -1.749708
171.300000 -1.749708 -1.749708
171.350000 -1.749708 -1.749708
171.400000 -1.749708 -1.749708
171.450000 -1.749708 -1.749708
171.500000 -1.749708 -1.749708
171.550000 -1.749708 -1.749708
171.600000 -1.749708 -1.749708
171.650000 -1.749708 -1.749708
171.700000 -1.749708 -1.749708
171.750000 -1.749708 -1.749708
171.800000 -1.749708 -1.749708
171.850000 -1.749708 -1.749708
171.900000 -1.749708 -1.749708
171.950000 -1.749708 -1.749708
172.000000 -1.749708 -1.749708
172.050000 -1.749708 -1.749708
172.100000 -1.749708 -1.749708
172.150000 -1.749708 -1.749708
172.200000 -1.749708 -1.749708
172.250000 -1.749708 -1.749708
172.300000 -1.749708 -1.749708
172.350000 -1.749708 -1.749708
172.400000 -1.749708 -1.749708
172.450000 -1.749708 -1.749708
172.500000 -1.749708 -1.749708
172.550000 -1.749708 -1.749708
172.600000 -1.749708 -1.749708
172.650000 -1.749708 -1.749708
172.700000 -1.749708 -1.749708
172.750000 -1.749708 -1.749708
172.800000 -1.749708 -1.749708
172.850000 -1.749708 -1.749708
172.900000 -1.749708 -1.749708
172.950000 -1.749708 -1.749708
173.000000 -1.749708 -1.749708
173.050000 -1.749708 -1.749708
173.100000 -1.749708 -1.749708
173.150000 -1.749708 -1.749708
173.200000 -1.749708 -1.749708
173.250000 -1.749708 -1.749708
173.300000 -1.749708 -1.749708
173.350000 -1.749708 -1.749708
173.400000 -1.749708 -1.749708
173.450000 -1.749708 -1.749708
173.500000 -1.749708 -1.749708
173.550000 -1.749708 -1.749708
173.600000 -1.749708 -1.749708
173.650000 -1.749708 -1.749708
173.700000 -1.749708 -1.749708
173.750000 -1.749708 -1.749708
173.800000 -1.749708 -1.749708
173.850000 -1.749708 -1.749708
173.900000 -1.749708 -1.749708
173.950000 -1.749708 -1.749708
174.000000 -1.749708 -1.749708
174.050000 -1.749708 -1.749708
174.100000 -1.749708 -1.749708
174.150000 -1.749708 -1.749708
174.200000 -1.749708 -1.749708
174.250000 -1.749708 -1.749708
174.300000 -1.749708 -1.749708
174.350000 -1.749708 -1.749708
174.400000 -1.749708 -1.749708
174.450000 -1.749708 -1.749708
174.500000 -1.749708 -1.749708
174.550000 -1.749708 -1.749708
174.600000 -1.749708 -1.749708
174.650000 -1.749708 -1.749708
174.700000 -1.749708 -1.749708
174.750000 -1.749708 -1.749708
174.800000 -1.749708 -1.749708
174.850000 -1.749708 -1.749708
174.900000 -1.749708 -1.749708
174.950000 -1.749708 -1.749708
175.000000 -1.749708 -1.749708
175.050000 -1.749708 -1.749708
175.100000 -1.749708 -1.749708
175.150000 -1.749708 -1.749708
175.200000 -1.749708 -1.749708
175.250000 -1.749708 -1.749708
175.300000 -1.749708 -1.749708
175.350000 -1.749708 -1.749708
175.400000 -1.749708 -1.749708
175.450000 -1.749708 -1.749708
175.500000 -1.749708 -1.749708
175.550000 -1.749708 -1.749708
175.600000 -1.749708 -1.749708
175.650000 -1.749708 -1.749708
175.700000 -1.749708 -1.749708
175.750000 -1.749708 -1.749708
175.800000 -1.749708 -1.749708
175.850000 -1.749708 -1.749708
175.900000 -1.749708 -1.749708
175.950000 -1.749708 -1.749708
176.000000 -1.749708 -1.749708
176.050000 -1.749708 -1.749708
176.100000 -1.749708 -1.749708
176.150000 -1.749708 -1.749708
176.200000 -1.749708 -1.749708
176.250000 -1.749708 -1.749708
176.300000 -1.749708 -1.749708
176.350000 -1.749708 -1.749708
176.400000 -1.749708 -1.749708
176.450000 -1.749708 -1.749708
176.500000 -1.749708 -1.749708
176.550000 -1.749708 -1.749708
176.600000 -1.749708 -1.749708
176.650000 -1.749708 -1.749708
176.700000 -1.749708 -1.749708
176.750000 -1.749708 -1.749708
176.800000 -1.749708 -1.749708
176.850000 -1.749708 -1.749708
176.900000 -1.749708 -1.749708
176.950000 -1.749708 -1.749708
177.000000 -1.749708 -1.749708
177.050000 -1.749708 -1.749708
177.100000 -1.749708 -1.749708
177.150000 -1.749708 -1.749708
177.200000 -1.749708 -1.749708
177.250000 -1.749708 -1.749708
177.300000 -1.749708 -1.749708
177.350000 -1.749708 -1.749708
177.400000 -1.749708 -1.749708
177.450000 -1.749708 -1.749708
177.500000 -1.749708 -1.749708
177.550000 -1.749708 -1.749708
177.600000 -1.749708 -1.749708
177.650000 -1.749708 -1.749708
177.700000 -1.749708 -1.749708
177.750000 -1.749708 -1.749708
177.800000 -1.749708 -1.749708
177.850000 -1.749708 -1.749708
177.900000 -1.749708 -1.749708
177.950000 -1.749708 -1.749708
178.000000 -1.749708 -1.749708
178.050000 -1.749708 -1.749708
178.100000 -1.749708 -1.749708
178.150000 -1.749708 -1.749708
178.200000 -1.749708 -1.749708
178.250000 -1.749708 -1.749708
178.300000 -1.749708 -1.749708
178.350000 -1.749708 -1.749708
178.400000 -1.749708 -1.749708
178.450000 -1.749708 -1.749708
178.500000 -1.749708 -1.749708
178.550000 -1.749708 -1.749708
178.600000 -1.749708 -1.749708
178.650000 -1.749708 -1.749708
178.700000 -1.749708 -1.749708
178.750000 -1.749708 -1.749708
178.800000 -1.749708 -1.749708
178.850000 -1.749708 -1.749708
178.900000 -1.749708 -1.749708
178.950000 -1.749708 -1.749708
179.000000 -1.749708 -1.749708
179.050000 -1.749708 -1.749708
179.100000 -1.749708 -1.749708
179.150000 -1.749708 -1.749708
179.200000 -1.749708 -1.749708
179.250000 -1.749708 -1.749708
179.300000 -1.749708 -1.749708
179.350000 -1.749708 -1.749708
179.400000 -1.749708 -1.749708
179.450000 -1.749708 -1.749708
179.500000 -1.749708 -1.749708
179.550000 -1.749708 -1.749708
179.600000 -1.749708 -1.749708
179.650000 -1.749708 -1.749708
179.700000 -1.749708 -1.749708
179.750000 -1.749708 -1.749708
179.800000 -1.749708 -1.749708
179.850000 -1.749708 -1.749708
179.900000 -1.749708 -1.749708
179.950000 -1.749708 -1.749708
180.000000 -1.749708 -1.749708
180.050000 -1.749708 -1.749708
180.100000 -1.749708 -1.749708
180.150000 -1.749708 -1.749708
180.200000 -1.749708 -1.749708
180.250000 -1.749708 -1.749708
180.300000 -1.749708 -1.749708
180.350000 -1.749708 -1.749708
180.400000 -1.749708 -1.749708
180.450000 -1.749708 -1.749708
180.500000 -1.749708 -1.749708
180.550000 -1.749708 -1.749708
180.600000 -1.749708 -1.749708
180.650000 -1.749708 -1.749708
180.700000 -1.749708 -1.749708
180.750000 -1.749708 -1.749708
180.800000 -1.749708 -1.749708
180.850000 -1.749708 -1.749708
180.900000 -1.749708 -1.749708
180.950000 -1.749708 -1.749708
181.000000 -1.749708 -1.749708
181.050000 -1.749708 -1.749708
181.100000 -1.749708 -1.749708
181.150000 -1.749708 -1.749708
181.200000 -1.749708 -1.749708
181.250000 -1.749708 -1.749708
181.300000 -1.749708 -1.749708
181.350000 -1.749708 -1.749708
181.400000 -1.749708 -1.749708
181.450000 -1.749708 -1.749708
181.500000 -1.749708 -1.749708
181.550000 -1.749708 -1.749708
181.600000 -1.749708 -1.749708
181.650000 -1.749708 -1.749708
181.700000 -1.749708 -1.749708
181.750000 -1.749708 -1.749708
181.800000 -1.749708 -1.749708
181.850000 -1.749708 -1.749708
181.900000 -1.749708 -1.749708
181.950000 -1.749708 -1.749708
182.000000 -1.749708 -1.749708
182.050000 -1.749708 -1.749708
182.100000 -1.749708 -1.749708
182.150000 -1.749708 -1.749708
182.200000 -1.749708 -1.749708
182.250000 -1.749708 -1.749708
182.300000 -1.749708 -1.749708
182.350000 -1.749708 -1.749708
182.400000 -1.749708 -1.749708
182.450000 -1.749708 -1.749708
182.500000 -1.749708 -1.749708
182.550000 -1.749708 -1.749708
182.600000 -1.749708 -1.749708
182.650000 -1.749708 -1.749708
182.700000 -1.749708 -1.749708
182.750000 -1.749708 -1.749708
182.800000 -1.749708 -1.749708
182.850000 -1.749708 -1.749708
182.900000 -1.749708 -1.749708
182.950000 -1.749708 -1.749708
183.000000 -1.749708 -1.749708
183.050000 -1.749708 -1.749708
183.100000 -1.749708 -1.749708
183.150000 -1.749708 -1.749708
183.200000 -1.749708 -1.749708
183.250000 -1.749708 -1.749708
183.300000 -1.749708 -1.749708
183.350000 -1.749708 -1.749708
183.400000 -1.749708 -1.749708
183.450000 -1.749708 -1.749708
183.500000 -1.749708 -1.749708
183.550000 -1.749708 -1.749708
183.600000 -1.749708 -1.749708
183.650000 -1.749708 -1.749708
183.700000 -1.749708 -1.749708
183.750000 -1.749708 -1.749708
183.800000 -1.749708 -1.749708
183.850000 -1.749708 -1.749708
183.900000 -1.749708 -1.749708
183.950000 -1.749708 -1.749708
184.000000 -1.749708 -1.749708
184.050000 -1.749708 -1.749708
184.100000 -1.749708 -1.749708
184.150000 -1.749708 -1.749708
184.200000 -1.749708 -1.749708
184.250000 -1.749708 -1.749708
184.300000 -1.749708 -1.749708
184.350000 -1.749708 -1.749708
184.400000 -1.749708 -1.749708
184.450000 -1.749708 -1.749708
184.500000 -1.749708 -1.749708
184.550000 -1.749708 -1.749708
184.600000 -1.749708 -1.749708
184.650000 -1.749708 -1.749708
184.700000 -1.749708 -1.749708
184.750000 -1.749708 -1.749708
184.800000 -1.749708 -1.749708
184.850000 -1.749708 -1.749708
184.900000 -1.749708 -1.749708
184.950000 -1.749708 -1.749708
185.000000 -1.749708 -1.749708
185.050000 -1.749708 -1.749708
185.100000 -1.749708 -1.749708
185.150000 -1.749708 -1.749708
185.200000 -1.749708 -1.749708
185.250000 -1.749708 -1.749708
185.300000 -1.749708 -1.749708
185.350000 -1.749708 -1.749708
185.400000 -1.749708 -1.749708
185.450000 -1.749708 -1.749708
185.500000 -1.749708 -1.749708
185.550000 -1.749708 -1.749708
185.600000 -1.749708 -1.749708
185.650000 -1.749708 -1.749708
185.700000 -1.749708 -1.749708
185.750000 -1.749708 -1.749708
185.800000 -1.749708 -1.749708
185.850000 -1.749708 -1.749708
185.900000 -1.749708 -1.749708
185.950000 -1.749708 -1.749708
186.000000 -1.749708 -1.749708
186.050000 -1.749708 -1.749708
186.100000 -1.749708 -1.749708
186.150000 -1.749708 -1.749708
186.200000 -1.749708 -1.749708
186.250000 -1.749708 -1.749708
186.300000 -1.749708 -1.749708
186.350000 -1.749708 -1.749708
186.400000 -1.749708 -1.749708
186.450000 -1.749708 -1.749708
186.500000 -1.749708 -1.749708
186.550000 -1.749708 -1.749708
186.600000 -1.749708 -1.749708
186.650000 -1.749708 -1.749708
186.700000 -1.749708 -1.749708
186.750000 -1.749708 -1.749708
186.800000 -1.749708 -1.749708
186.850000 -1.749708 -1.749708
186.900000 -1.749708 -1.749708
186.950000 -1.749708 -1.749708
