fit_time[ns] Functional_fit[mV] Thermal_fit[mV]
3.650000 23.627628 22.385687
3.700000 23.243270 21.918975
3.750000 22.835965 21.461916
3.800000 22.404585 21.014302
3.850000 21.948822 20.575926
3.900000 21.469186 20.146588
3.950000 20.966974 19.726094
4.000000 20.444234 19.314252
4.050000 19.903701 18.910875
4.100000 19.348722 18.515780
4.150000 18.783165 18.128791
4.200000 18.211317 17.749732
4.250000 17.637773 17.378434
4.300000 17.067319 17.014730
4.350000 16.504810 16.658458
4.400000 15.955050 16.309459
4.450000 15.422671 15.967579
4.500000 14.912021 15.632665
4.550000 14.427058 15.304570
4.600000 13.971250 14.983148
4.650000 13.547501 14.668258
4.700000 13.158073 14.359762
4.750000 12.804539 14.057525
4.800000 12.487748 13.761414
4.850000 12.207805 13.471299
4.900000 11.964073 13.187056
4.950000 11.755192 12.908559
5.000000 11.579113 12.635689
5.050000 11.433154 12.368326
5.100000 11.314064 12.106357
5.150000 11.218103 11.849667
5.200000 11.141138 11.598145
5.250000 11.078737 11.351685
5.300000 11.026280 11.110181
5.350000 10.979069 10.873528
5.400000 10.932436 10.641627
5.450000 10.881857 10.414377
5.500000 10.823055 10.191684
5.550000 10.752098 9.973450
5.600000 10.665490 9.759586
5.650000 10.560248 9.549999
5.700000 10.433967 9.344601
5.750000 10.284874 9.143306
5.800000 10.111858 8.946029
5.850000 9.914492 8.752687
5.900000 9.693036 8.563199
5.950000 9.448420 8.377485
6.000000 9.182218 8.195469
6.050000 8.896598 8.017073
6.100000 8.594266 7.842223
6.150000 8.278394 7.670848
6.200000 7.952538 7.502875
6.250000 7.620544 7.338234
6.300000 7.286458 7.176859
6.350000 6.954416 7.018681
6.400000 6.628551 6.863636
6.450000 6.312887 6.711659
6.500000 6.011241 6.562689
6.550000 5.727135 6.416664
6.600000 5.463707 6.273523
6.650000 5.223644 6.133209
6.700000 5.009113 5.995664
6.750000 4.821715 5.860831
6.800000 4.662452 5.728656
6.850000 4.531702 5.599085
6.900000 4.429219 5.472064
6.950000 4.354138 5.347543
7.000000 4.305004 5.225471
7.050000 4.279808 5.105798
7.100000 4.276042 4.988476
7.150000 4.290758 4.873458
7.200000 4.320648 4.760697
7.250000 4.362119 4.650147
7.300000 4.411385 4.541764
7.350000 4.464557 4.435505
7.400000 4.517738 4.331326
7.450000 4.567114 4.229187
7.500000 4.609045 4.129045
7.550000 4.640153 4.030862
7.600000 4.657392 3.934597
7.650000 4.658129 3.840213
7.700000 4.640192 3.747671
7.750000 4.601924 3.656935
7.800000 4.542218 3.567969
7.850000 4.460531 3.480737
7.900000 4.356901 3.395205
7.950000 4.231932 3.311339
8.000000 4.086780 3.229105
8.050000 3.923115 3.148472
8.100000 3.743077 3.069407
8.150000 3.549222 2.991878
8.200000 3.344453 2.915857
8.250000 3.131947 2.841312
8.300000 2.915077 2.768214
8.350000 2.697326 2.696534
8.400000 2.482203 2.626245
8.450000 2.273159 2.557319
8.500000 2.073500 2.489729
8.550000 1.886312 2.423447
8.600000 1.714382 2.358450
8.650000 1.560142 2.294710
8.700000 1.425605 2.232204
8.750000 1.312321 2.170906
8.800000 1.221346 2.110793
8.850000 1.153218 2.051842
8.900000 1.107949 1.994030
8.950000 1.085027 1.937333
9.000000 1.083435 1.881731
9.050000 1.101674 1.827202
9.100000 1.137812 1.773724
9.150000 1.189523 1.721277
9.200000 1.254154 1.669841
9.250000 1.328788 1.619396
9.300000 1.410314 1.569921
9.350000 1.495509 1.521399
9.400000 1.581110 1.473811
9.450000 1.663896 1.427138
9.500000 1.740763 1.381362
9.550000 1.808798 1.336466
9.600000 1.865350 1.292432
9.650000 1.908084 1.249245
9.700000 1.935041 1.206886
9.750000 1.944678 1.165340
9.800000 1.935904 1.124591
9.850000 1.908097 1.084624
9.900000 1.861121 1.045422
9.950000 1.795319 1.006972
10.000000 1.711504 0.969259
10.050000 1.610933 0.932268
10.100000 1.495274 0.895985
10.150000 1.366559 0.860396
10.200000 1.227138 0.825488
10.250000 1.079611 0.791248
10.300000 0.926770 0.757662
10.350000 0.771525 0.724719
10.400000 0.616834 0.692404
10.450000 0.465634 0.660707
10.500000 0.320766 0.629615
10.550000 0.184908 0.599117
10.600000 0.060515 0.569200
10.650000 -0.050245 0.539854
10.700000 -0.145533 0.511068
10.750000 -0.223887 0.482830
10.800000 -0.284252 0.455131
10.850000 -0.326003 0.427959
10.900000 -0.348953 0.401305
10.950000 -0.353360 0.375158
11.000000 -0.339911 0.349509
11.050000 -0.309709 0.324348
11.100000 -0.264234 0.299666
11.150000 -0.205314 0.275453
11.200000 -0.135072 0.251700
11.250000 -0.055873 0.228398
11.300000 0.029733 0.205540
11.350000 0.119073 0.183116
11.400000 0.209418 0.161117
11.450000 0.298052 0.139536
11.500000 0.382328 0.118365
11.550000 0.459742 0.097595
11.600000 0.527983 0.077219
11.650000 0.584993 0.057230
11.700000 0.629008 0.037619
11.750000 0.658606 0.018381
11.800000 0.672729 -0.000494
11.850000 0.670714 -0.019010
11.900000 0.652296 -0.037177
11.950000 0.617621 -0.054999
12.000000 0.567230 -0.072484
12.050000 0.502047 -0.089638
12.100000 0.423352 -0.106467
12.150000 0.332750 -0.122979
12.200000 0.232122 -0.139178
12.250000 0.123585 -0.155071
12.300000 0.009436 -0.170663
12.350000 -0.107908 -0.185962
12.400000 -0.225964 -0.200971
12.450000 -0.342248 -0.215696
12.500000 -0.454332 -0.230144
12.550000 -0.559904 -0.244319
12.600000 -0.656821 -0.258227
12.650000 -0.743163 -0.271872
12.700000 -0.817272 -0.285260
12.750000 -0.877793 -0.298396
12.800000 -0.923706 -0.311283
12.850000 -0.954343 -0.323928
12.900000 -0.969405 -0.336335
12.950000 -0.968965 -0.348508
13.000000 -0.953462 -0.360452
13.050000 -0.923689 -0.372171
13.100000 -0.880771 -0.383670
13.150000 -0.826134 -0.394952
13.200000 -0.761468 -0.406021
13.250000 -0.688685 -0.416883
13.300000 -0.609873 -0.427540
13.350000 -0.527240 -0.437997
13.400000 -0.443062 -0.448258
13.450000 -0.359630 -0.458325
13.500000 -0.279190 -0.468204
13.550000 -0.203893 -0.477896
13.600000 -0.135745 -0.487407
13.650000 -0.076556 -0.496739
13.700000 -0.027900 -0.505896
13.750000 0.008918 -0.514882
13.800000 0.032897 -0.523698
13.850000 0.043354 -0.532349
13.900000 0.039945 -0.540838
13.950000 0.022665 -0.549168
14.000000 -0.008153 -0.557342
14.050000 -0.051849 -0.565362
14.100000 -0.107454 -0.573232
14.150000 -0.173717 -0.580955
14.200000 -0.249139 -0.588533
14.250000 -0.332009 -0.595969
14.300000 -0.420447 -0.603265
14.350000 -0.512453 -0.610426
14.400000 -0.605953 -0.617452
14.450000 -0.698855 -0.624347
14.500000 -0.789093 -0.631112
14.550000 -0.874681 -0.637751
14.600000 -0.953760 -0.644266
14.650000 -1.024639 -0.650659
14.700000 -1.085837 -0.656933
14.750000 -1.136116 -0.663090
14.800000 -1.174508 -0.669131
14.850000 -1.200339 -0.675059
14.900000 -1.213237 -0.680877
14.950000 -1.213146 -0.686586
15.000000 -1.200317 -0.692189
15.050000 -1.175305 -0.697686
15.100000 -1.138951 -0.703082
15.150000 -1.092358 -0.708376
15.200000 -1.036867 -0.713572
15.250000 -0.974015 -0.718671
15.300000 -0.905504 -0.723674
15.350000 -0.833153 -0.728585
15.400000 -0.758858 -0.733404
15.450000 -0.684541 -0.738133
15.500000 -0.612107 -0.742774
15.550000 -0.543396 -0.747328
15.600000 -0.480143 -0.751798
15.650000 -0.423931 -0.756184
15.700000 -0.376161 -0.760488
15.750000 -0.338014 -0.764713
15.800000 -0.310429 -0.768859
15.850000 -0.294080 -0.772927
15.900000 -0.289364 -0.776920
15.950000 -0.296389 -0.780839
16.000000 -0.314981 -0.784684
16.050000 -0.344687 -0.788458
16.100000 -0.384786 -0.792162
16.150000 -0.434313 -0.795797
16.200000 -0.492083 -0.799365
16.250000 -0.556721 -0.802866
16.300000 -0.626694 -0.806302
16.350000 -0.700357 -0.809674
16.400000 -0.775985 -0.812984
16.450000 -0.851819 -0.816232
16.500000 -0.926111 -0.819420
16.550000 -0.997163 -0.822548
16.600000 -1.063367 -0.825619
16.650000 -1.123245 -0.828632
16.700000 -1.175482 -0.831590
16.750000 -1.218958 -0.834492
16.800000 -1.252773 -0.837341
16.850000 -1.276264 -0.840137
16.900000 -1.289021 -0.842881
16.950000 -1.290898 -0.845574
17.000000 -1.282007 -0.848217
17.050000 -1.262719 -0.850811
17.100000 -1.233652 -0.853357
17.150000 -1.195652 -0.855856
17.200000 -1.149771 -0.858309
17.250000 -1.097242 -0.860716
17.300000 -1.039444 -0.863078
17.350000 -0.977874 -0.865397
17.400000 -0.914101 -0.867673
17.450000 -0.849737 -0.869907
17.500000 -0.786391 -0.872099
17.550000 -0.725632 -0.874251
17.600000 -0.668955 -0.876363
17.650000 -0.617738 -0.878435
17.700000 -0.573221 -0.880470
17.750000 -0.536466 -0.882467
17.800000 -0.508340 -0.884426
17.850000 -0.489494 -0.886350
17.900000 -0.480348 -0.888238
17.950000 -0.481085 -0.890091
18.000000 -0.491647 -0.891910
18.050000 -0.511740 -0.893695
18.100000 -0.540841 -0.895447
18.150000 -0.578213 -0.897167
18.200000 -0.622928 -0.898855
18.250000 -0.673887 -0.900512
18.300000 -0.729848 -0.902138
18.350000 -0.789460 -0.903735
18.400000 -0.851296 -0.905301
18.450000 -0.913884 -0.906839
18.500000 -0.975749 -0.908348
18.550000 -1.035443 -0.909830
18.600000 -1.091584 -0.911284
18.650000 -1.142885 -0.912711
18.700000 -1.188188 -0.914112
18.750000 -1.226486 -0.915488
18.800000 -1.256951 -0.916837
18.850000 -1.278951 -0.918162
18.900000 -1.292059 -0.919463
18.950000 -1.296068 -0.920739
19.000000 -1.290992 -0.921992
19.050000 -1.277061 -0.923222
19.100000 -1.254716 -0.924429
19.150000 -1.224597 -0.925614
19.200000 -1.187526 -0.926777
19.250000 -1.144484 -0.927919
19.300000 -1.096585 -0.929039
19.350000 -1.045052 -0.930139
19.400000 -0.991185 -0.931219
19.450000 -0.936327 -0.932279
19.500000 -0.881834 -0.933319
19.550000 -0.829039 -0.934340
19.600000 -0.779224 -0.935342
19.650000 -0.733588 -0.936326
19.700000 -0.693218 -0.937292
19.750000 -0.659064 -0.938240
19.800000 -0.631917 -0.939171
19.850000 -0.612395 -0.940084
19.900000 -0.600923 -0.940981
19.950000 -0.597730 -0.941861
20.000000 -0.602844 -0.942725
20.050000 -0.616091 -0.943573
20.100000 -0.637101 -0.944405
20.150000 -0.665324 -0.945222
20.200000 -0.700036 -0.946024
20.250000 -0.740365 -0.946812
20.300000 -0.785311 -0.947585
20.350000 -0.833771 -0.948343
20.400000 -0.884565 -0.949088
20.450000 -0.936469 -0.949819
20.500000 -0.988240 -0.950537
20.550000 -1.038651 -0.951241
20.600000 -1.086516 -0.951933
20.650000 -1.130720 -0.952612
20.700000 -1.170249 -0.953278
20.750000 -1.204206 -0.953932
20.800000 -1.231836 -0.954574
20.850000 -1.252546 -0.955205
20.900000 -1.265910 -0.955823
20.950000 -1.271686 -0.956431
21.000000 -1.269814 -0.957027
21.050000 -1.260419 -0.957612
21.100000 -1.243808 -0.958187
21.150000 -1.220455 -0.958751
21.200000 -1.190996 -0.959304
21.250000 -1.156205 -0.959848
21.300000 -1.116979 -0.960382
21.350000 -1.074315 -0.960905
21.400000 -1.029282 -0.961419
21.450000 -0.982997 -0.961924
21.500000 -0.936598 -0.962420
21.550000 -0.891216 -0.962906
21.600000 -0.847946 -0.963384
21.650000 -0.807823 -0.963852
21.700000 -0.771799 -0.964312
21.750000 -0.740717 -0.964764
21.800000 -0.715294 -0.965208
21.850000 -0.696104 -0.965643
21.900000 -0.683566 -0.966070
21.950000 -0.677935 -0.966490
22.000000 -0.679297 -0.966902
22.050000 -0.687570 -0.967306
22.100000 -0.702505 -0.967703
22.150000 -0.723693 -0.968092
22.200000 -0.750582 -0.968475
22.250000 -0.782482 -0.968850
22.300000 -0.818592 -0.969219
22.350000 -0.858016 -0.969581
22.400000 -0.899783 -0.969936
22.450000 -0.942877 -0.970285
22.500000 -0.986256 -0.970627
22.550000 -1.028883 -0.970963
22.600000 -1.069744 -0.971293
22.650000 -1.107880 -0.971617
22.700000 -1.142402 -0.971935
22.750000 -1.172519 -0.972248
22.800000 -1.197551 -0.972554
22.850000 -1.216946 -0.972855
22.900000 -1.230293 -0.973150
22.950000 -1.237329 -0.973440
23.000000 -1.237947 -0.973725
23.050000 -1.232194 -0.974004
23.100000 -1.220270 -0.974279
23.150000 -1.202522 -0.974548
23.200000 -1.179433 -0.974813
23.250000 -1.151614 -0.975072
23.300000 -1.119779 -0.975327
23.350000 -1.084738 -0.975577
23.400000 -1.047367 -0.975823
23.450000 -1.008592 -0.976064
23.500000 -0.969365 -0.976301
23.550000 -0.930641 -0.976533
23.600000 -0.893353 -0.976761
23.650000 -0.858392 -0.976985
23.700000 -0.826587 -0.977205
23.750000 -0.798680 -0.977421
23.800000 -0.775316 -0.977633
23.850000 -0.757023 -0.977841
23.900000 -0.744203 -0.978046
23.950000 -0.737124 -0.978246
24.000000 -0.735910 -0.978443
24.050000 -0.740545 -0.978636
24.100000 -0.750873 -0.978826
24.150000 -0.766599 -0.979013
24.200000 -0.787304 -0.979196
24.250000 -0.812450 -0.979375
24.300000 -0.841397 -0.979552
24.350000 -0.873421 -0.979725
24.400000 -0.907728 -0.979895
24.450000 -0.943475 -0.980061
24.500000 -0.979795 -0.980225
24.550000 -1.015810 -0.980386
24.600000 -1.050661 -0.980544
24.650000 -1.083522 -0.980699
24.700000 -1.113622 -0.980851
24.750000 -1.140264 -0.981001
24.800000 -1.162840 -0.981147
24.850000 -1.180845 -0.981291
24.900000 -1.193887 -0.981433
24.950000 -1.201700 -0.981572
25.000000 -1.204142 -0.981708
25.050000 -1.201206 -0.981842
25.100000 -1.193011 -0.981973
25.150000 -1.179803 -0.982102
25.200000 -1.161946 -0.982229
25.250000 -1.139914 -0.982353
25.300000 -1.114275 -0.982475
25.350000 -1.085682 -0.982595
25.400000 -1.054852 -0.982713
25.450000 -1.022549 -0.982828
25.500000 -0.989566 -0.982942
25.550000 -0.956706 -0.983053
25.600000 -0.924762 -0.983162
25.650000 -0.894499 -0.983270
25.700000 -0.866634 -0.983375
25.750000 -0.841818 -0.983479
25.800000 -0.820627 -0.983580
25.850000 -0.803541 -0.983680
25.900000 -0.790940 -0.983778
25.950000 -0.783090 -0.983874
26.000000 -0.780142 -0.983969
26.050000 -0.782127 -0.984061
26.100000 -0.788958 -0.984152
26.150000 -0.800429 -0.984242
26.200000 -0.816228 -0.984329
26.250000 -0.835938 -0.984415
26.300000 -0.859053 -0.984500
26.350000 -0.884989 -0.984583
26.400000 -0.913100 -0.984665
26.450000 -0.942691 -0.984745
26.500000 -0.973040 -0.984823
26.550000 -1.003411 -0.984900
26.600000 -1.033073 -0.984976
26.650000 -1.061322 -0.985050
26.700000 -1.087489 -0.985124
26.750000 -1.110966 -0.985195
26.800000 -1.131210 -0.985266
26.850000 -1.147765 -0.985335
26.900000 -1.160266 -0.985403
26.950000 -1.168447 -0.985469
27.000000 -1.172150 -0.985535
27.050000 -1.171327 -0.985599
27.100000 -1.166037 -0.985662
27.150000 -1.156449 -0.985724
27.200000 -1.142831 -0.985785
27.250000 -1.125547 -0.985844
27.300000 -1.105048 -0.985903
27.350000 -1.081855 -0.985961
27.400000 -1.056551 -0.986017
27.450000 -1.029767 -0.986073
27.500000 -1.002160 -0.986127
27.550000 -0.974404 -0.986181
27.600000 -0.947170 -0.986233
27.650000 -0.921111 -0.986285
27.700000 -0.896846 -0.986335
27.750000 -0.874943 -0.986385
27.800000 -0.855913 -0.986434
27.850000 -0.840189 -0.986482
27.900000 -0.828123 -0.986529
27.950000 -0.819975 -0.986575
28.000000 -0.815910 -0.986620
28.050000 -0.815989 -0.986665
28.100000 -0.820178 -0.986709
28.150000 -0.828341 -0.986752
28.200000 -0.840249 -0.986794
28.250000 -0.855582 -0.986835
28.300000 -0.873944 -0.986876
28.350000 -0.894867 -0.986916
28.400000 -0.917826 -0.986955
28.450000 -0.942252 -0.986993
28.500000 -0.967545 -0.987031
28.550000 -0.993090 -0.987068
28.600000 -1.018269 -0.987105
28.650000 -1.042480 -0.987140
28.700000 -1.065150 -0.987175
28.750000 -1.085746 -0.987210
28.800000 -1.103792 -0.987244
28.850000 -1.118876 -0.987277
28.900000 -1.130660 -0.987310
28.950000 -1.138890 -0.987342
29.000000 -1.143400 -0.987373
29.050000 -1.144113 -0.987404
29.100000 -1.141045 -0.987434
29.150000 -1.134304 -0.987464
29.200000 -1.124085 -0.987494
29.250000 -1.110664 -0.987522
29.300000 -1.094393 -0.987550
29.350000 -1.075688 -0.987578
29.400000 -1.055023 -0.987605
29.450000 -1.032911 -0.987632
29.500000 -1.009899 -0.987658
29.550000 -0.986550 -0.987684
29.600000 -0.963428 -0.987709
29.650000 -0.941090 -0.987734
29.700000 -0.920067 -0.987758
29.750000 -0.900855 -0.987782
29.800000 -0.883902 -0.987806
29.850000 -0.869597 -0.987829
29.900000 -0.858262 -0.987852
29.950000 -0.850145 -0.987874
30.000000 -0.845414 -0.987896
30.050000 -0.844156 -0.987917
30.100000 -0.846370 -0.987938
30.150000 -0.851974 -0.987959
30.200000 -0.860805 -0.987979
30.250000 -0.872622 -0.987999
30.300000 -0.887115 -0.988019
30.350000 -0.903914 -0.988038
30.400000 -0.922594 -0.988057
30.450000 -0.942689 -0.988075
30.500000 -0.963705 -0.988093
30.550000 -0.985126 -0.988111
30.600000 -1.006435 -0.988129
30.650000 -1.027119 -0.988146
30.700000 -1.046687 -0.988163
30.750000 -1.064676 -0.988180
30.800000 -1.080669 -0.988196
30.850000 -1.094296 -0.988212
30.900000 -1.105252 -0.988228
30.950000 -1.113294 -0.988243
31.000000 -1.118256 -0.988258
31.050000 -1.120045 -0.988273
31.100000 -1.118644 -0.988288
31.150000 -1.114116 -0.988302
31.200000 -1.106597 -0.988316
31.250000 -1.096294 -0.988330
31.300000 -1.083480 -0.988344
31.350000 -1.068484 -0.988357
31.400000 -1.051688 -0.988370
31.450000 -1.033512 -0.988383
31.500000 -1.014405 -0.988396
31.550000 -0.994836 -0.988408
31.600000 -0.975281 -0.988420
31.650000 -0.956210 -0.988432
31.700000 -0.938080 -0.988444
31.750000 -0.921318 -0.988456
31.800000 -0.906317 -0.988467
31.850000 -0.893424 -0.988478
31.900000 -0.882930 -0.988489
31.950000 -0.875069 -0.988500
32.000000 -0.870007 -0.988510
32.050000 -0.867843 -0.988521
32.100000 -0.868603 -0.988531
32.150000 -0.872245 -0.988541
32.200000 -0.878656 -0.988550
32.250000 -0.887658 -0.988560
32.300000 -0.899012 -0.988570
32.350000 -0.912426 -0.988579
32.400000 -0.927558 -0.988588
32.450000 -0.944029 -0.988597
32.500000 -0.961432 -0.988606
32.550000 -0.979339 -0.988614
32.600000 -0.997316 -0.988623
32.650000 -1.014928 -0.988631
32.700000 -1.031755 -0.988639
32.750000 -1.047399 -0.988647
32.800000 -1.061493 -0.988655
32.850000 -1.073712 -0.988663
32.900000 -1.083778 -0.988670
32.950000 -1.091466 -0.988678
33.000000 -1.096613 -0.988685
33.050000 -1.099116 -0.988692
33.100000 -1.098938 -0.988699
33.150000 -1.096107 -0.988706
33.200000 -1.090714 -0.988713
33.250000 -1.082910 -0.988720
33.300000 -1.072906 -0.988726
33.350000 -1.060960 -0.988733
33.400000 -1.047378 -0.988739
33.450000 -1.032500 -0.988745
33.500000 -1.016697 -0.988752
33.550000 -1.000357 -0.988758
33.600000 -0.983878 -0.988763
33.650000 -0.967658 -0.988769
33.700000 -0.952086 -0.988775
33.750000 -0.937532 -0.988780
33.800000 -0.924338 -0.988786
33.850000 -0.912808 -0.988791
33.900000 -0.903208 -0.988797
33.950000 -0.895752 -0.988802
34.000000 -0.890601 -0.988807
34.050000 -0.887859 -0.988812
34.100000 -0.887571 -0.988817
34.150000 -0.889725 -0.988822
34.200000 -0.894246 -0.988826
34.250000 -0.901006 -0.988831
34.300000 -0.909823 -0.988836
34.350000 -0.920467 -0.988840
34.400000 -0.932665 -0.988844
34.450000 -0.946112 -0.988849
34.500000 -0.960472 -0.988853
34.550000 -0.975392 -0.988857
34.600000 -0.990507 -0.988861
34.650000 -1.005453 -0.988865
34.700000 -1.019871 -0.988869
34.750000 -1.033417 -0.988873
34.800000 -1.045775 -0.988877
34.850000 -1.056656 -0.988881
34.900000 -1.065811 -0.988884
34.950000 -1.073034 -0.988888
35.000000 -1.078169 -0.988891
35.050000 -1.081110 -0.988895
35.100000 -1.081804 -0.988898
35.150000 -1.080256 -0.988902
35.200000 -1.076520 -0.988905
35.250000 -1.070707 -0.988908
35.300000 -1.062973 -0.988911
35.350000 -1.053523 -0.988914
35.400000 -1.042598 -0.988918
35.450000 -1.030474 -0.988921
35.500000 -1.017454 -0.988924
35.550000 -1.003859 -0.988926
35.600000 -0.990021 -0.988929
35.650000 -0.976276 -0.988932
35.700000 -0.962955 -0.988935
35.750000 -0.950373 -0.988937
35.800000 -0.938828 -0.988940
35.850000 -0.928590 -0.988943
35.900000 -0.919893 -0.988945
35.950000 -0.912934 -0.988948
36.000000 -0.907866 -0.988950
36.050000 -0.904793 -0.988953
36.100000 -0.903774 -0.988955
36.150000 -0.904815 -0.988957
36.200000 -0.907874 -0.988960
36.250000 -0.912858 -0.988962
36.300000 -0.919633 -0.988964
36.350000 -0.928019 -0.988966
36.400000 -0.937800 -0.988968
36.450000 -0.948730 -0.988971
36.500000 -0.960534 -0.988973
36.550000 -0.972922 -0.988975
36.600000 -0.985590 -0.988977
36.650000 -0.998230 -0.988979
36.700000 -1.010538 -0.988980
36.750000 -1.022222 -0.988982
36.800000 -1.033004 -0.988984
36.850000 -1.042633 -0.988986
36.900000 -1.050888 -0.988988
36.950000 -1.057581 -0.988989
37.000000 -1.062564 -0.988991
37.050000 -1.065733 -0.988993
37.100000 -1.067026 -0.988995
37.150000 -1.066429 -0.988996
37.200000 -1.063972 -0.988998
37.250000 -1.059731 -0.988999
37.300000 -1.053823 -0.989001
37.350000 -1.046404 -0.989002
37.400000 -1.037668 -0.989004
37.450000 -1.027834 -0.989005
37.500000 -1.017150 -0.989007
37.550000 -1.005880 -0.989008
37.600000 -0.994301 -0.989009
37.650000 -0.982694 -0.989011
37.700000 -0.971339 -0.989012
37.750000 -0.960508 -0.989013
37.800000 -0.950456 -0.989015
37.850000 -0.941419 -0.989016
37.900000 -0.933606 -0.989017
37.950000 -0.927195 -0.989018
38.000000 -0.922328 -0.989020
38.050000 -0.919109 -0.989021
38.100000 -0.917602 -0.989022
38.150000 -0.917827 -0.989023
38.200000 -0.919765 -0.989024
38.250000 -0.923354 -0.989025
38.300000 -0.928493 -0.989026
38.350000 -0.935047 -0.989027
38.400000 -0.942843 -0.989028
38.450000 -0.951685 -0.989029
38.500000 -0.961350 -0.989030
38.550000 -0.971599 -0.989031
38.600000 -0.982179 -0.989032
38.650000 -0.992833 -0.989033
38.700000 -1.003304 -0.989034
38.750000 -1.013341 -0.989035
38.800000 -1.022706 -0.989036
38.850000 -1.031180 -0.989037
38.900000 -1.038566 -0.989038
38.950000 -1.044696 -0.989039
39.000000 -1.049432 -0.989039
39.050000 -1.052674 -0.989040
39.100000 -1.054354 -0.989041
39.150000 -1.054448 -0.989042
39.200000 -1.052966 -0.989043
39.250000 -1.049957 -0.989043
39.300000 -1.045507 -0.989044
39.350000 -1.039735 -0.989045
39.400000 -1.032793 -0.989046
39.450000 -1.024856 -0.989046
39.500000 -1.016126 -0.989047
39.550000 -1.006818 -0.989048
39.600000 -0.997163 -0.989048
39.650000 -0.987396 -0.989049
39.700000 -0.977752 -0.989050
39.750000 -0.968463 -0.989050
39.800000 -0.959750 -0.989051
39.850000 -0.951818 -0.989052
39.900000 -0.944851 -0.989052
39.950000 -0.939008 -0.989053
40.000000 -0.934421 -0.989053
40.050000 -0.931189 -0.989054
40.100000 -0.929378 -0.989054
40.150000 -0.929020 -0.989055
40.200000 -0.930110 -0.989056
40.250000 -0.932611 -0.989056
40.300000 -0.936450 -0.989057
40.350000 -0.941522 -0.989057
40.400000 -0.947696 -0.989058
40.450000 -0.954813 -0.989058
40.500000 -0.962693 -0.989059
40.550000 -0.971140 -0.989059
40.600000 -0.979946 -0.989059
40.650000 -0.988895 -0.989060
40.700000 -0.997772 -0.989060
40.750000 -1.006362 -0.989061
40.800000 -1.014462 -0.989061
40.850000 -1.021880 -0.989062
40.900000 -1.028444 -0.989062
40.950000 -1.034003 -0.989063
41.000000 -1.038432 -0.989063
41.050000 -1.041634 -0.989063
41.100000 -1.043543 -0.989064
41.150000 -1.044123 -0.989064
41.200000 -1.043372 -0.989064
41.250000 -1.041319 -0.989065
41.300000 -1.038026 -0.989065
41.350000 -1.033582 -0.989066
41.400000 -1.028105 -0.989066
41.450000 -1.021734 -0.989066
41.500000 -1.014631 -0.989067
41.550000 -1.006974 -0.989067
41.600000 -0.998952 -0.989067
41.650000 -0.990760 -0.989068
41.700000 -0.982599 -0.989068
41.750000 -0.974663 -0.989068
41.800000 -0.967143 -0.989068
41.850000 -0.960215 -0.989069
41.900000 -0.954042 -0.989069
41.950000 -0.948765 -0.989069
42.000000 -0.944505 -0.989070
42.050000 -0.941354 -0.989070
42.100000 -0.939380 -0.989070
42.150000 -0.938619 -0.989070
42.200000 -0.939080 -0.989071
42.250000 -0.940741 -0.989071
42.300000 -0.943551 -0.989071
42.350000 -0.947434 -0.989071
42.400000 -0.952285 -0.989072
42.450000 -0.957981 -0.989072
42.500000 -0.964377 -0.989072
42.550000 -0.971312 -0.989072
42.600000 -0.978615 -0.989073
42.650000 -0.986107 -0.989073
42.700000 -0.993607 -0.989073
42.750000 -1.000932 -0.989073
42.800000 -1.007909 -0.989073
42.850000 -1.014372 -0.989074
42.900000 -1.020170 -0.989074
42.950000 -1.025169 -0.989074
43.000000 -1.029257 -0.989074
43.050000 -1.032341 -0.989074
43.100000 -1.034357 -0.989075
43.150000 -1.035265 -0.989075
43.200000 -1.035052 -0.989075
43.250000 -1.033735 -0.989075
43.300000 -1.031353 -0.989075
43.350000 -1.027973 -0.989076
43.400000 -1.023686 -0.989076
43.450000 -1.018602 -0.989076
43.500000 -1.012851 -0.989076
43.550000 -1.006577 -0.989076
43.600000 -0.999936 -0.989076
43.650000 -0.993090 -0.989077
43.700000 -0.986206 -0.989077
43.750000 -0.979451 -0.989077
43.800000 -0.972986 -0.989077
43.850000 -0.966964 -0.989077
43.900000 -0.961526 -0.989077
43.950000 -0.956798 -0.989077
44.000000 -0.952889 -0.989078
44.050000 -0.949885 -0.989078
44.100000 -0.947850 -0.989078
44.150000 -0.946826 -0.989078
44.200000 -0.946828 -0.989078
44.250000 -0.947848 -0.989078
44.300000 -0.949852 -0.989078
44.350000 -0.952783 -0.989078
44.400000 -0.956563 -0.989079
44.450000 -0.961094 -0.989079
44.500000 -0.966259 -0.989079
44.550000 -0.971930 -0.989079
44.600000 -0.977965 -0.989079
44.650000 -0.984215 -0.989079
44.700000 -0.990529 -0.989079
44.750000 -0.996753 -0.989079
44.800000 -1.002740 -0.989079
44.850000 -1.008345 -0.989080
44.900000 -1.013439 -0.989080
44.950000 -1.017902 -0.989080
45.000000 -1.021632 -0.989080
45.050000 -1.024547 -0.989080
45.100000 -1.026582 -0.989080
45.150000 -1.027696 -0.989080
45.200000 -1.027871 -0.989080
45.250000 -1.027111 -0.989080
45.300000 -1.025441 -0.989080
45.350000 -1.022909 -0.989080
45.400000 -1.019585 -0.989081
45.450000 -1.015555 -0.989081
45.500000 -1.010922 -0.989081
45.550000 -1.005803 -0.989081
45.600000 -1.000325 -0.989081
45.650000 -0.994624 -0.989081
45.700000 -0.988838 -0.989081
45.750000 -0.983108 -0.989081
45.800000 -0.977571 -0.989081
45.850000 -0.972358 -0.989081
45.900000 -0.967594 -0.989081
45.950000 -0.963388 -0.989081
46.000000 -0.959837 -0.989081
46.050000 -0.957020 -0.989081
46.100000 -0.955001 -0.989082
46.150000 -0.953819 -0.989082
46.200000 -0.953496 -0.989082
46.250000 -0.954034 -0.989082
46.300000 -0.955411 -0.989082
46.350000 -0.957586 -0.989082
46.400000 -0.960502 -0.989082
46.450000 -0.964081 -0.989082
46.500000 -0.968231 -0.989082
46.550000 -0.972847 -0.989082
46.600000 -0.977815 -0.989082
46.650000 -0.983011 -0.989082
46.700000 -0.988309 -0.989082
46.750000 -0.993580 -0.989082
46.800000 -0.998697 -0.989082
46.850000 -1.003538 -0.989082
46.900000 -1.007990 -0.989082
46.950000 -1.011948 -0.989082
47.000000 -1.015321 -0.989083
47.050000 -1.018034 -0.989083
47.100000 -1.020025 -0.989083
47.150000 -1.021255 -0.989083
47.200000 -1.021699 -0.989083
47.250000 -1.021354 -0.989083
47.300000 -1.020235 -0.989083
47.350000 -1.018375 -0.989083
47.400000 -1.015825 -0.989083
47.450000 -1.012654 -0.989083
47.500000 -1.008942 -0.989083
47.550000 -1.004784 -0.989083
47.600000 -1.000284 -0.989083
47.650000 -0.995552 -0.989083
47.700000 -0.990706 -0.989083
47.750000 -0.985862 -0.989083
47.800000 -0.981137 -0.989083
47.850000 -0.976645 -0.989083
47.900000 -0.972491 -0.989083
47.950000 -0.968772 -0.989083
48.000000 -0.965574 -0.989083
48.050000 -0.962970 -0.989083
48.100000 -0.961017 -0.989083
48.150000 -0.959757 -0.989083
48.200000 -0.959214 -0.989083
48.250000 -0.959395 -0.989083
48.300000 -0.960289 -0.989083
48.350000 -0.961869 -0.989083
48.400000 -0.964091 -0.989084
48.450000 -0.966896 -0.989084
48.500000 -0.970211 -0.989084
48.550000 -0.973952 -0.989084
48.600000 -0.978025 -0.989084
48.650000 -0.982329 -0.989084
48.700000 -0.986759 -0.989084
48.750000 -0.991207 -0.989084
48.800000 -0.995565 -0.989084
48.850000 -0.999730 -0.989084
48.900000 -1.003602 -0.989084
48.950000 -1.007092 -0.989084
49.000000 -1.010118 -0.989084
49.050000 -1.012611 -0.989084
49.100000 -1.014516 -0.989084
49.150000 -1.015792 -0.989084
49.200000 -1.016415 -0.989084
49.250000 -1.016373 -0.989084
49.300000 -1.015675 -0.989084
49.350000 -1.014342 -0.989084
49.400000 -1.012413 -0.989084
49.450000 -1.009938 -0.989084
49.500000 -1.006983 -0.989084
49.550000 -1.003622 -0.989084
49.600000 -0.999939 -0.989084
49.650000 -0.996027 -0.989084
49.700000 -0.991982 -0.989084
49.750000 -0.987901 -0.989084
49.800000 -0.983884 -0.989084
49.850000 -0.980027 -0.989084
49.900000 -0.976421 -0.989084
49.950000 -0.973152 -0.989084
50.000000 -0.970294 -0.989084
50.050000 -0.967913 -0.989084
50.100000 -0.966062 -0.989084
50.150000 -0.964782 -0.989084
50.200000 -0.964098 -0.989084
50.250000 -0.964022 -0.989084
50.300000 -0.964550 -0.989084
50.350000 -0.965664 -0.989084
50.400000 -0.967333 -0.989084
50.450000 -0.969511 -0.989084
50.500000 -0.972142 -0.989084
50.550000 -0.975158 -0.989084
50.600000 -0.978484 -0.989084
50.650000 -0.982036 -0.989084
50.700000 -0.985727 -0.989084
50.750000 -0.989468 -0.989084
50.800000 -0.993167 -0.989084
50.850000 -0.996735 -0.989084
50.900000 -1.000089 -0.989084
50.950000 -1.003149 -0.989084
51.000000 -1.005844 -0.989084
51.050000 -1.008112 -0.989084
51.100000 -1.009903 -0.989084
51.150000 -1.011176 -0.989084
51.200000 -1.011907 -0.989084
51.250000 -1.012082 -0.989085
51.300000 -1.011701 -0.989085
51.350000 -1.010779 -0.989085
51.400000 -1.009343 -0.989085
51.450000 -1.007431 -0.989085
51.500000 -1.005093 -0.989085
51.550000 -1.002390 -0.989085
51.600000 -0.999390 -0.989085
51.650000 -0.996168 -0.989085
51.700000 -0.992803 -0.989085
51.750000 -0.989377 -0.989085
51.800000 -0.985974 -0.989085
51.850000 -0.982675 -0.989085
51.900000 -0.979558 -0.989085
51.950000 -0.976698 -0.989085
52.000000 -0.974161 -0.989085
52.050000 -0.972005 -0.989085
52.100000 -0.970279 -0.989085
52.150000 -0.969021 -0.989085
52.200000 -0.968256 -0.989085
52.250000 -0.968000 -0.989085
52.300000 -0.968254 -0.989085
52.350000 -0.969007 -0.989085
52.400000 -0.970238 -0.989085
52.450000 -0.971911 -0.989085
52.500000 -0.973984 -0.989085
52.550000 -0.976403 -0.989085
52.600000 -0.979106 -0.989085
52.650000 -0.982026 -0.989085
52.700000 -0.985091 -0.989085
52.750000 -0.988226 -0.989085
52.800000 -0.991355 -0.989085
52.850000 -0.994402 -0.989085
52.900000 -0.997294 -0.989085
52.950000 -0.999964 -0.989085
53.000000 -1.002349 -0.989085
53.050000 -1.004395 -0.989085
53.100000 -1.006053 -0.989085
53.150000 -1.007289 -0.989085
53.200000 -1.008076 -0.989085
53.250000 -1.008399 -0.989085
53.300000 -1.008254 -0.989085
53.350000 -1.007648 -0.989085
53.400000 -1.006601 -0.989085
53.450000 -1.005141 -0.989085
53.500000 -1.003306 -0.989085
53.550000 -1.001145 -0.989085
53.600000 -0.998712 -0.989085
53.650000 -0.996069 -0.989085
53.700000 -0.993280 -0.989085
53.750000 -0.990413 -0.989085
53.800000 -0.987540 -0.989085
53.850000 -0.984728 -0.989085
53.900000 -0.982046 -0.989085
53.950000 -0.979556 -0.989085
54.000000 -0.977317 -0.989085
54.050000 -0.975381 -0.989085
54.100000 -0.973791 -0.989085
54.150000 -0.972584 -0.989085
54.200000 -0.971784 -0.989085
54.250000 -0.971408 -0.989085
54.300000 -0.971460 -0.989085
54.350000 -0.971937 -0.989085
54.400000 -0.972822 -0.989085
54.450000 -0.974092 -0.989085
54.500000 -0.975712 -0.989085
54.550000 -0.977640 -0.989085
54.600000 -0.979826 -0.989085
54.650000 -0.982217 -0.989085
54.700000 -0.984753 -0.989085
54.750000 -0.987371 -0.989085
54.800000 -0.990008 -0.989085
54.850000 -0.992600 -0.989085
54.900000 -0.995086 -0.989085
54.950000 -0.997405 -0.989085
55.000000 -0.999504 -0.989085
55.050000 -1.001333 -0.989085
55.100000 -1.002853 -0.989085
55.150000 -1.004027 -0.989085
55.200000 -1.004832 -0.989085
55.250000 -1.005250 -0.989085
55.300000 -1.005276 -0.989085
55.350000 -1.004911 -0.989085
55.400000 -1.004168 -0.989085
55.450000 -1.003069 -0.989085
55.500000 -1.001642 -0.989085
55.550000 -0.999925 -0.989085
55.600000 -0.997962 -0.989085
55.650000 -0.995802 -0.989085
55.700000 -0.993499 -0.989085
55.750000 -0.991109 -0.989085
55.800000 -0.988691 -0.989085
55.850000 -0.986304 -0.989085
55.900000 -0.984004 -0.989085
55.950000 -0.981846 -0.989085
56.000000 -0.979881 -0.989085
56.050000 -0.978154 -0.989085
56.100000 -0.976706 -0.989085
56.150000 -0.975568 -0.989085
56.200000 -0.974766 -0.989085
56.250000 -0.974315 -0.989085
56.300000 -0.974224 -0.989085
56.350000 -0.974492 -0.989085
56.400000 -0.975108 -0.989085
56.450000 -0.976056 -0.989085
56.500000 -0.977310 -0.989085
56.550000 -0.978836 -0.989085
56.600000 -0.980596 -0.989085
56.650000 -0.982546 -0.989085
56.700000 -0.984636 -0.989085
56.750000 -0.986815 -0.989085
56.800000 -0.989030 -0.989085
56.850000 -0.991227 -0.989085
56.900000 -0.993354 -0.989085
56.950000 -0.995360 -0.989085
57.000000 -0.997197 -0.989085
57.050000 -0.998823 -0.989085
57.100000 -1.000201 -0.989085
57.150000 -1.001299 -0.989085
57.200000 -1.002094 -0.989085
57.250000 -1.002568 -0.989085
57.300000 -1.002714 -0.989085
57.350000 -1.002530 -0.989085
57.400000 -1.002024 -0.989085
57.450000 -1.001210 -0.989085
57.500000 -1.000112 -0.989085
57.550000 -0.998758 -0.989085
57.600000 -0.997182 -0.989085
57.650000 -0.995425 -0.989085
57.700000 -0.993530 -0.989085
57.750000 -0.991545 -0.989085
57.800000 -0.989517 -0.989085
57.850000 -0.987497 -0.989085
57.900000 -0.985532 -0.989085
57.950000 -0.983669 -0.989085
58.000000 -0.981954 -0.989085
58.050000 -0.980424 -0.989085
58.100000 -0.979116 -0.989085
58.150000 -0.978060 -0.989085
58.200000 -0.977278 -0.989085
58.250000 -0.976788 -0.989085
58.300000 -0.976597 -0.989085
58.350000 -0.976709 -0.989085
58.400000 -0.977119 -0.989085
58.450000 -0.977812 -0.989085
58.500000 -0.978772 -0.989085
58.550000 -0.979971 -0.989085
58.600000 -0.981380 -0.989085
58.650000 -0.982962 -0.989085
58.700000 -0.984677 -0.989085
58.750000 -0.986485 -0.989085
58.800000 -0.988339 -0.989085
58.850000 -0.990195 -0.989085
58.900000 -0.992009 -0.989085
58.950000 -0.993736 -0.989085
59.000000 -0.995337 -0.989085
59.050000 -0.996773 -0.989085
59.100000 -0.998012 -0.989085
59.150000 -0.999025 -0.989085
59.200000 -0.999790 -0.989085
59.250000 -1.000291 -0.989085
59.300000 -1.000518 -0.989085
59.350000 -1.000467 -0.989085
59.400000 -1.000142 -0.989085
59.450000 -0.999554 -0.989085
59.500000 -0.998719 -0.989085
59.550000 -0.997660 -0.989085
59.600000 -0.996402 -0.989085
59.650000 -0.994980 -0.989085
59.700000 -0.993427 -0.989085
59.750000 -0.991784 -0.989085
59.800000 -0.990090 -0.989085
59.850000 -0.988386 -0.989085
59.900000 -0.986713 -0.989085
59.950000 -0.985112 -0.989085
60.000000 -0.983621 -0.989085
60.050000 -0.982274 -0.989085
60.100000 -0.981102 -0.989085
60.150000 -0.980133 -0.989085
60.200000 -0.979388 -0.989085
60.250000 -0.978883 -0.989085
60.300000 -0.978627 -0.989085
60.350000 -0.978626 -0.989085
60.400000 -0.978877 -0.989085
60.450000 -0.979372 -0.989085
60.500000 -0.980096 -0.989085
60.550000 -0.981030 -0.989085
60.600000 -0.982150 -0.989085
60.650000 -0.983428 -0.989085
60.700000 -0.984831 -0.989085
60.750000 -0.986324 -0.989085
60.800000 -0.987871 -0.989085
60.850000 -0.989434 -0.989085
60.900000 -0.990975 -0.989085
60.950000 -0.992457 -0.989085
61.000000 -0.993845 -0.989085
61.050000 -0.995107 -0.989085
61.100000 -0.996213 -0.989085
61.150000 -0.997137 -0.989085
61.200000 -0.997860 -0.989085
61.250000 -0.998365 -0.989085
61.300000 -0.998642 -0.989085
61.350000 -0.998687 -0.989085
61.400000 -0.998500 -0.989085
61.450000 -0.998089 -0.989085
61.500000 -0.997463 -0.989085
61.550000 -0.996642 -0.989085
61.600000 -0.995645 -0.989085
61.650000 -0.994499 -0.989085
61.700000 -0.993233 -0.989085
61.750000 -0.991877 -0.989085
61.800000 -0.990466 -0.989085
61.850000 -0.989034 -0.989085
61.900000 -0.987616 -0.989085
61.950000 -0.986245 -0.989085
62.000000 -0.984954 -0.989085
62.050000 -0.983774 -0.989085
62.100000 -0.982732 -0.989085
62.150000 -0.981851 -0.989085
62.200000 -0.981153 -0.989085
62.250000 -0.980652 -0.989085
62.300000 -0.980358 -0.989085
62.350000 -0.980277 -0.989085
62.400000 -0.980408 -0.989085
62.450000 -0.980748 -0.989085
62.500000 -0.981285 -0.989085
62.550000 -0.982006 -0.989085
62.600000 -0.982890 -0.989085
62.650000 -0.983917 -0.989085
62.700000 -0.985059 -0.989085
62.750000 -0.986288 -0.989085
62.800000 -0.987574 -0.989085
62.850000 -0.988885 -0.989085
62.900000 -0.990190 -0.989085
62.950000 -0.991457 -0.989085
63.000000 -0.992656 -0.989085
63.050000 -0.993758 -0.989085
63.100000 -0.994739 -0.989085
63.150000 -0.995575 -0.989085
63.200000 -0.996247 -0.989085
63.250000 -0.996742 -0.989085
63.300000 -0.997047 -0.989085
63.350000 -0.997158 -0.989085
63.400000 -0.997074 -0.989085
63.450000 -0.996798 -0.989085
63.500000 -0.996339 -0.989085
63.550000 -0.995709 -0.989085
63.600000 -0.994925 -0.989085
63.650000 -0.994007 -0.989085
63.700000 -0.992978 -0.989085
63.750000 -0.991865 -0.989085
63.800000 -0.990694 -0.989085
63.850000 -0.989495 -0.989085
63.900000 -0.988295 -0.989085
63.950000 -0.987126 -0.989085
64.000000 -0.986013 -0.989085
64.050000 -0.984984 -0.989085
64.100000 -0.984063 -0.989085
64.150000 -0.983271 -0.989085
64.200000 -0.982625 -0.989085
64.250000 -0.982141 -0.989085
64.300000 -0.981827 -0.989085
64.350000 -0.981692 -0.989085
64.400000 -0.981736 -0.989085
64.450000 -0.981956 -0.989085
64.500000 -0.982346 -0.989085
64.550000 -0.982895 -0.989085
64.600000 -0.983588 -0.989085
64.650000 -0.984408 -0.989085
64.700000 -0.985333 -0.989085
64.750000 -0.986341 -0.989085
64.800000 -0.987406 -0.989085
64.850000 -0.988502 -0.989085
64.900000 -0.989603 -0.989085
64.950000 -0.990682 -0.989085
65.000000 -0.991714 -0.989085
65.050000 -0.992673 -0.989085
65.100000 -0.993537 -0.989085
65.150000 -0.994287 -0.989085
65.200000 -0.994905 -0.989085
65.250000 -0.995378 -0.989085
65.300000 -0.995695 -0.989085
65.350000 -0.995850 -0.989085
65.400000 -0.995840 -0.989085
65.450000 -0.995669 -0.989085
65.500000 -0.995340 -0.989085
65.550000 -0.994863 -0.989085
65.600000 -0.994251 -0.989085
65.650000 -0.993521 -0.989085
65.700000 -0.992689 -0.989085
65.750000 -0.991778 -0.989085
65.800000 -0.990810 -0.989085
65.850000 -0.989809 -0.989085
65.900000 -0.988799 -0.989085
65.950000 -0.987804 -0.989085
66.000000 -0.986849 -0.989085
66.050000 -0.985956 -0.989085
66.100000 -0.985146 -0.989085
66.150000 -0.984438 -0.989085
66.200000 -0.983848 -0.989085
66.250000 -0.983389 -0.989085
66.300000 -0.983071 -0.989085
66.350000 -0.982901 -0.989085
66.400000 -0.982881 -0.989085
66.450000 -0.983011 -0.989085
66.500000 -0.983286 -0.989085
66.550000 -0.983698 -0.989085
66.600000 -0.984236 -0.989085
66.650000 -0.984887 -0.989085
66.700000 -0.985633 -0.989085
66.750000 -0.986456 -0.989085
66.800000 -0.987335 -0.989085
66.850000 -0.988248 -0.989085
66.900000 -0.989174 -0.989085
66.950000 -0.990090 -0.989085
67.000000 -0.990973 -0.989085
67.050000 -0.991804 -0.989085
67.100000 -0.992562 -0.989085
67.150000 -0.993230 -0.989085
67.200000 -0.993792 -0.989085
67.250000 -0.994236 -0.989085
67.300000 -0.994552 -0.989085
67.350000 -0.994733 -0.989085
67.400000 -0.994778 -0.989085
67.450000 -0.994684 -0.989085
67.500000 -0.994457 -0.989085
67.550000 -0.994102 -0.989085
67.600000 -0.993630 -0.989085
67.650000 -0.993052 -0.989085
67.700000 -0.992383 -0.989085
67.750000 -0.991641 -0.989085
67.800000 -0.990844 -0.989085
67.850000 -0.990011 -0.989085
67.900000 -0.989163 -0.989085
67.950000 -0.988320 -0.989085
68.000000 -0.987504 -0.989085
68.050000 -0.986732 -0.989085
68.100000 -0.986023 -0.989085
68.150000 -0.985395 -0.989085
68.200000 -0.984861 -0.989085
68.250000 -0.984433 -0.989085
68.300000 -0.984120 -0.989085
68.350000 -0.983930 -0.989085
68.400000 -0.983866 -0.989085
68.450000 -0.983928 -0.989085
68.500000 -0.984114 -0.989085
68.550000 -0.984418 -0.989085
68.600000 -0.984831 -0.989085
68.650000 -0.985344 -0.989085
68.700000 -0.985942 -0.989085
68.750000 -0.986610 -0.989085
68.800000 -0.987333 -0.989085
68.850000 -0.988092 -0.989085
68.900000 -0.988867 -0.989085
68.950000 -0.989642 -0.989085
69.000000 -0.990396 -0.989085
69.050000 -0.991113 -0.989085
69.100000 -0.991774 -0.989085
69.150000 -0.992365 -0.989085
69.200000 -0.992872 -0.989085
69.250000 -0.993283 -0.989085
69.300000 -0.993589 -0.989085
69.350000 -0.993785 -0.989085
69.400000 -0.993866 -0.989085
69.450000 -0.993830 -0.989085
69.500000 -0.993681 -0.989085
69.550000 -0.993423 -0.989085
69.600000 -0.993062 -0.989085
69.650000 -0.992608 -0.989085
69.700000 -0.992074 -0.989085
69.750000 -0.991472 -0.989085
69.800000 -0.990818 -0.989085
69.850000 -0.990128 -0.989085
69.900000 -0.989419 -0.989085
69.950000 -0.988707 -0.989085
70.000000 -0.988011 -0.989085
70.050000 -0.987347 -0.989085
70.100000 -0.986730 -0.989085
70.150000 -0.986176 -0.989085
70.200000 -0.985696 -0.989085
70.250000 -0.985302 -0.989085
70.300000 -0.985002 -0.989085
70.350000 -0.984804 -0.989085
70.400000 -0.984710 -0.989085
70.450000 -0.984722 -0.989085
70.500000 -0.984839 -0.989085
70.550000 -0.985058 -0.989085
70.600000 -0.985372 -0.989085
70.650000 -0.985772 -0.989085
70.700000 -0.986249 -0.989085
70.750000 -0.986790 -0.989085
70.800000 -0.987381 -0.989085
70.850000 -0.988009 -0.989085
70.900000 -0.988657 -0.989085
70.950000 -0.989309 -0.989085
71.000000 -0.989951 -0.989085
71.050000 -0.990566 -0.989085
71.100000 -0.991141 -0.989085
71.150000 -0.991661 -0.989085
71.200000 -0.992114 -0.989085
71.250000 -0.992491 -0.989085
71.300000 -0.992782 -0.989085
71.350000 -0.992982 -0.989085
71.400000 -0.993086 -0.989085
71.450000 -0.993093 -0.989085
71.500000 -0.993003 -0.989085
71.550000 -0.992820 -0.989085
71.600000 -0.992549 -0.989085
71.650000 -0.992196 -0.989085
71.700000 -0.991771 -0.989085
71.750000 -0.991286 -0.989085
71.800000 -0.990751 -0.989085
71.850000 -0.990181 -0.989085
71.900000 -0.989590 -0.989085
71.950000 -0.988992 -0.989085
72.000000 -0.988400 -0.989085
72.050000 -0.987831 -0.989085
72.100000 -0.987297 -0.989085
72.150000 -0.986810 -0.989085
72.200000 -0.986382 -0.989085
72.250000 -0.986023 -0.989085
72.300000 -0.985741 -0.989085
72.350000 -0.985542 -0.989085
72.400000 -0.985430 -0.989085
72.450000 -0.985406 -0.989085
72.500000 -0.985472 -0.989085
72.550000 -0.985624 -0.989085
72.600000 -0.985858 -0.989085
72.650000 -0.986168 -0.989085
72.700000 -0.986546 -0.989085
72.750000 -0.986981 -0.989085
72.800000 -0.987463 -0.989085
72.850000 -0.987980 -0.989085
72.900000 -0.988520 -0.989085
72.950000 -0.989068 -0.989085
73.000000 -0.989612 -0.989085
73.050000 -0.990138 -0.989085
73.100000 -0.990635 -0.989085
73.150000 -0.991090 -0.989085
73.200000 -0.991493 -0.989085
73.250000 -0.991835 -0.989085
73.300000 -0.992107 -0.989085
73.350000 -0.992304 -0.989085
73.400000 -0.992422 -0.989085
73.450000 -0.992458 -0.989085
73.500000 -0.992414 -0.989085
73.550000 -0.992289 -0.989085
73.600000 -0.992088 -0.989085
73.650000 -0.991816 -0.989085
73.700000 -0.991482 -0.989085
73.750000 -0.991092 -0.989085
73.800000 -0.990657 -0.989085
73.850000 -0.990188 -0.989085
73.900000 -0.989697 -0.989085
73.950000 -0.989195 -0.989085
74.000000 -0.988695 -0.989085
74.050000 -0.988209 -0.989085
74.100000 -0.987747 -0.989085
74.150000 -0.987322 -0.989085
74.200000 -0.986944 -0.989085
74.250000 -0.986620 -0.989085
74.300000 -0.986358 -0.989085
74.350000 -0.986164 -0.989085
74.400000 -0.986042 -0.989085
74.450000 -0.985994 -0.989085
74.500000 -0.986021 -0.989085
74.550000 -0.986122 -0.989085
74.600000 -0.986293 -0.989085
74.650000 -0.986530 -0.989085
74.700000 -0.986827 -0.989085
74.750000 -0.987175 -0.989085
74.800000 -0.987567 -0.989085
74.850000 -0.987991 -0.989085
74.900000 -0.988438 -0.989085
74.950000 -0.988897 -0.989085
75.000000 -0.989357 -0.989085
75.050000 -0.989806 -0.989085
75.100000 -0.990234 -0.989085
75.150000 -0.990630 -0.989085
75.200000 -0.990986 -0.989085
75.250000 -0.991293 -0.989085
75.300000 -0.991544 -0.989085
75.350000 -0.991734 -0.989085
75.400000 -0.991858 -0.989085
75.450000 -0.991915 -0.989085
75.500000 -0.991903 -0.989085
75.550000 -0.991823 -0.989085
75.600000 -0.991678 -0.989085
75.650000 -0.991471 -0.989085
75.700000 -0.991209 -0.989085
75.750000 -0.990898 -0.989085
75.800000 -0.990547 -0.989085
75.850000 -0.990162 -0.989085
75.900000 -0.989756 -0.989085
75.950000 -0.989336 -0.989085
76.000000 -0.988915 -0.989085
76.050000 -0.988501 -0.989085
76.100000 -0.988104 -0.989085
76.150000 -0.987735 -0.989085
76.200000 -0.987401 -0.989085
76.250000 -0.987111 -0.989085
76.300000 -0.986871 -0.989085
76.350000 -0.986686 -0.989085
76.400000 -0.986560 -0.989085
76.450000 -0.986497 -0.989085
76.500000 -0.986496 -0.989085
76.550000 -0.986558 -0.989085
76.600000 -0.986680 -0.989085
76.650000 -0.986859 -0.989085
76.700000 -0.987090 -0.989085
76.750000 -0.987367 -0.989085
76.800000 -0.987683 -0.989085
76.850000 -0.988030 -0.989085
76.900000 -0.988399 -0.989085
76.950000 -0.988782 -0.989085
77.000000 -0.989169 -0.989085
77.050000 -0.989550 -0.989085
77.100000 -0.989917 -0.989085
77.150000 -0.990261 -0.989085
77.200000 -0.990574 -0.989085
77.250000 -0.990848 -0.989085
77.300000 -0.991077 -0.989085
77.350000 -0.991256 -0.989085
77.400000 -0.991381 -0.989085
77.450000 -0.991451 -0.989085
77.500000 -0.991462 -0.989085
77.550000 -0.991416 -0.989085
77.600000 -0.991314 -0.989085
77.650000 -0.991160 -0.989085
77.700000 -0.990957 -0.989085
77.750000 -0.990711 -0.989085
77.800000 -0.990427 -0.989085
77.850000 -0.990114 -0.989085
77.900000 -0.989778 -0.989085
77.950000 -0.989429 -0.989085
78.000000 -0.989075 -0.989085
78.050000 -0.988724 -0.989085
78.100000 -0.988384 -0.989085
78.150000 -0.988064 -0.989085
78.200000 -0.987772 -0.989085
78.250000 -0.987514 -0.989085
78.300000 -0.987296 -0.989085
78.350000 -0.987123 -0.989085
78.400000 -0.986998 -0.989085
78.450000 -0.986925 -0.989085
78.500000 -0.986905 -0.989085
78.550000 -0.986937 -0.989085
78.600000 -0.987021 -0.989085
78.650000 -0.987153 -0.989085
78.700000 -0.987331 -0.989085
78.750000 -0.987550 -0.989085
78.800000 -0.987804 -0.989085
78.850000 -0.988087 -0.989085
78.900000 -0.988391 -0.989085
78.950000 -0.988709 -0.989085
79.000000 -0.989033 -0.989085
79.050000 -0.989356 -0.989085
79.100000 -0.989670 -0.989085
79.150000 -0.989967 -0.989085
79.200000 -0.990240 -0.989085
79.250000 -0.990483 -0.989085
79.300000 -0.990690 -0.989085
79.350000 -0.990857 -0.989085
79.400000 -0.990980 -0.989085
79.450000 -0.991056 -0.989085
79.500000 -0.991083 -0.989085
79.550000 -0.991063 -0.989085
79.600000 -0.990995 -0.989085
79.650000 -0.990881 -0.989085
79.700000 -0.990726 -0.989085
79.750000 -0.990532 -0.989085
79.800000 -0.990305 -0.989085
79.850000 -0.990050 -0.989085
79.900000 -0.989775 -0.989085
79.950000 -0.989485 -0.989085
80.000000 -0.989188 -0.989085
80.050000 -0.988892 -0.989085
80.100000 -0.988602 -0.989085
80.150000 -0.988326 -0.989085
80.200000 -0.988072 -0.989085
80.250000 -0.987843 -0.989085
80.300000 -0.987647 -0.989085
80.350000 -0.987487 -0.989085
80.400000 -0.987367 -0.989085
80.450000 -0.987289 -0.989085
80.500000 -0.987255 -0.989085
80.550000 -0.987266 -0.989085
80.600000 -0.987320 -0.989085
80.650000 -0.987416 -0.989085
80.700000 -0.987552 -0.989085
80.750000 -0.987723 -0.989085
80.800000 -0.987926 -0.989085
80.850000 -0.988155 -0.989085
80.900000 -0.988404 -0.989085
80.950000 -0.988668 -0.989085
81.000000 -0.988939 -0.989085
81.050000 -0.989212 -0.989085
81.100000 -0.989479 -0.989085
81.150000 -0.989734 -0.989085
81.200000 -0.989972 -0.989085
81.250000 -0.990186 -0.989085
81.300000 -0.990372 -0.989085
81.350000 -0.990525 -0.989085
81.400000 -0.990642 -0.989085
81.450000 -0.990721 -0.989085
81.500000 -0.990759 -0.989085
81.550000 -0.990757 -0.989085
81.600000 -0.990715 -0.989085
81.650000 -0.990634 -0.989085
81.700000 -0.990516 -0.989085
81.750000 -0.990365 -0.989085
81.800000 -0.990184 -0.989085
81.850000 -0.989979 -0.989085
81.900000 -0.989753 -0.989085
81.950000 -0.989514 -0.989085
82.000000 -0.989266 -0.989085
82.050000 -0.989016 -0.989085
82.100000 -0.988770 -0.989085
82.150000 -0.988533 -0.989085
82.200000 -0.988312 -0.989085
82.250000 -0.988111 -0.989085
82.300000 -0.987936 -0.989085
82.350000 -0.987790 -0.989085
82.400000 -0.987676 -0.989085
82.450000 -0.987597 -0.989085
82.500000 -0.987555 -0.989085
82.550000 -0.987549 -0.989085
82.600000 -0.987581 -0.989085
82.650000 -0.987649 -0.989085
82.700000 -0.987751 -0.989085
82.750000 -0.987884 -0.989085
82.800000 -0.988045 -0.989085
82.850000 -0.988229 -0.989085
82.900000 -0.988433 -0.989085
82.950000 -0.988650 -0.989085
83.000000 -0.988876 -0.989085
83.050000 -0.989106 -0.989085
83.100000 -0.989332 -0.989085
83.150000 -0.989551 -0.989085
83.200000 -0.989757 -0.989085
83.250000 -0.989945 -0.989085
83.300000 -0.990110 -0.989085
83.350000 -0.990249 -0.989085
83.400000 -0.990359 -0.989085
83.450000 -0.990438 -0.989085
83.500000 -0.990483 -0.989085
83.550000 -0.990494 -0.989085
83.600000 -0.990471 -0.989085
83.650000 -0.990415 -0.989085
83.700000 -0.990328 -0.989085
83.750000 -0.990211 -0.989085
83.800000 -0.990068 -0.989085
83.850000 -0.989903 -0.989085
83.900000 -0.989719 -0.989085
83.950000 -0.989522 -0.989085
84.000000 -0.989316 -0.989085
84.050000 -0.989106 -0.989085
84.100000 -0.988897 -0.989085
84.150000 -0.988695 -0.989085
84.200000 -0.988504 -0.989085
84.250000 -0.988328 -0.989085
84.300000 -0.988173 -0.989085
84.350000 -0.988040 -0.989085
84.400000 -0.987934 -0.989085
84.450000 -0.987857 -0.989085
84.500000 -0.987809 -0.989085
84.550000 -0.987793 -0.989085
84.600000 -0.987808 -0.989085
84.650000 -0.987854 -0.989085
84.700000 -0.987929 -0.989085
84.750000 -0.988031 -0.989085
84.800000 -0.988158 -0.989085
84.850000 -0.988306 -0.989085
84.900000 -0.988471 -0.989085
84.950000 -0.988650 -0.989085
85.000000 -0.988838 -0.989085
85.050000 -0.989030 -0.989085
85.100000 -0.989222 -0.989085
85.150000 -0.989408 -0.989085
85.200000 -0.989586 -0.989085
85.250000 -0.989750 -0.989085
85.300000 -0.989896 -0.989085
85.350000 -0.990022 -0.989085
85.400000 -0.990124 -0.989085
85.450000 -0.990200 -0.989085
85.500000 -0.990248 -0.989085
85.550000 -0.990268 -0.989085
85.600000 -0.990260 -0.989085
85.650000 -0.990223 -0.989085
85.700000 -0.990159 -0.989085
85.750000 -0.990070 -0.989085
85.800000 -0.989958 -0.989085
85.850000 -0.989826 -0.989085
85.900000 -0.989677 -0.989085
85.950000 -0.989515 -0.989085
86.000000 -0.989344 -0.989085
86.050000 -0.989169 -0.989085
86.100000 -0.988993 -0.989085
86.150000 -0.988820 -0.989085
86.200000 -0.988656 -0.989085
86.250000 -0.988503 -0.989085
86.300000 -0.988366 -0.989085
86.350000 -0.988247 -0.989085
86.400000 -0.988149 -0.989085
86.450000 -0.988075 -0.989085
86.500000 -0.988026 -0.989085
86.550000 -0.988002 -0.989085
86.600000 -0.988005 -0.989085
86.650000 -0.988034 -0.989085
86.700000 -0.988088 -0.989085
86.750000 -0.988165 -0.989085
86.800000 -0.988264 -0.989085
86.850000 -0.988382 -0.989085
86.900000 -0.988516 -0.989085
86.950000 -0.988662 -0.989085
87.000000 -0.988818 -0.989085
87.050000 -0.988978 -0.989085
87.100000 -0.989140 -0.989085
87.150000 -0.989298 -0.989085
87.200000 -0.989451 -0.989085
87.250000 -0.989593 -0.989085
87.300000 -0.989722 -0.989085
87.350000 -0.989834 -0.989085
87.400000 -0.989928 -0.989085
87.450000 -0.990000 -0.989085
87.500000 -0.990049 -0.989085
87.550000 -0.990075 -0.989085
87.600000 -0.990077 -0.989085
87.650000 -0.990055 -0.989085
87.700000 -0.990010 -0.989085
87.750000 -0.989943 -0.989085
87.800000 -0.989856 -0.989085
87.850000 -0.989751 -0.989085
87.900000 -0.989631 -0.989085
87.950000 -0.989498 -0.989085
88.000000 -0.989357 -0.989085
88.050000 -0.989211 -0.989085
88.100000 -0.989063 -0.989085
88.150000 -0.988917 -0.989085
88.200000 -0.988776 -0.989085
88.250000 -0.988643 -0.989085
88.300000 -0.988523 -0.989085
88.350000 -0.988417 -0.989085
88.400000 -0.988328 -0.989085
88.450000 -0.988258 -0.989085
88.500000 -0.988208 -0.989085
88.550000 -0.988180 -0.989085
88.600000 -0.988174 -0.989085
88.650000 -0.988191 -0.989085
88.700000 -0.988228 -0.989085
88.750000 -0.988286 -0.989085
88.800000 -0.988363 -0.989085
88.850000 -0.988456 -0.989085
88.900000 -0.988563 -0.989085
88.950000 -0.988683 -0.989085
89.000000 -0.988811 -0.989085
89.050000 -0.988944 -0.989085
89.100000 -0.989080 -0.989085
89.150000 -0.989215 -0.989085
89.200000 -0.989345 -0.989085
89.250000 -0.989468 -0.989085
89.300000 -0.989581 -0.989085
89.350000 -0.989681 -0.989085
89.400000 -0.989765 -0.989085
89.450000 -0.989833 -0.989085
89.500000 -0.989882 -0.989085
89.550000 -0.989911 -0.989085
89.600000 -0.989920 -0.989085
89.650000 -0.989909 -0.989085
89.700000 -0.989878 -0.989085
89.750000 -0.989829 -0.989085
89.800000 -0.989762 -0.989085
89.850000 -0.989679 -0.989085
89.900000 -0.989582 -0.989085
89.950000 -0.989475 -0.989085
90.000000 -0.989359 -0.989085
90.050000 -0.989237 -0.989085
90.100000 -0.989113 -0.989085
90.150000 -0.988989 -0.989085
90.200000 -0.988869 -0.989085
90.250000 -0.988755 -0.989085
90.300000 -0.988649 -0.989085
90.350000 -0.988556 -0.989085
90.400000 -0.988475 -0.989085
90.450000 -0.988410 -0.989085
90.500000 -0.988362 -0.989085
90.550000 -0.988332 -0.989085
90.600000 -0.988320 -0.989085
90.650000 -0.988327 -0.989085
90.700000 -0.988351 -0.989085
90.750000 -0.988394 -0.989085
90.800000 -0.988452 -0.989085
90.850000 -0.988526 -0.989085
90.900000 -0.988612 -0.989085
90.950000 -0.988709 -0.989085
91.000000 -0.988814 -0.989085
91.050000 -0.988924 -0.989085
91.100000 -0.989038 -0.989085
91.150000 -0.989152 -0.989085
91.200000 -0.989263 -0.989085
91.250000 -0.989369 -0.989085
91.300000 -0.989467 -0.989085
91.350000 -0.989555 -0.989085
91.400000 -0.989631 -0.989085
91.450000 -0.989693 -0.989085
91.500000 -0.989740 -0.989085
91.550000 -0.989771 -0.989085
91.600000 -0.989785 -0.989085
91.650000 -0.989783 -0.989085
91.700000 -0.989763 -0.989085
91.750000 -0.989727 -0.989085
91.800000 -0.989676 -0.989085
91.850000 -0.989611 -0.989085
91.900000 -0.989534 -0.989085
91.950000 -0.989447 -0.989085
92.000000 -0.989352 -0.989085
92.050000 -0.989252 -0.989085
92.100000 -0.989148 -0.989085
92.150000 -0.989044 -0.989085
92.200000 -0.988941 -0.989085
92.250000 -0.988843 -0.989085
92.300000 -0.988751 -0.989085
92.350000 -0.988669 -0.989085
92.400000 -0.988597 -0.989085
92.450000 -0.988537 -0.989085
92.500000 -0.988491 -0.989085
92.550000 -0.988460 -0.989085
92.600000 -0.988444 -0.989085
92.650000 -0.988444 -0.989085
92.700000 -0.988459 -0.989085
92.750000 -0.988489 -0.989085
92.800000 -0.988534 -0.989085
92.850000 -0.988591 -0.989085
92.900000 -0.988659 -0.989085
92.950000 -0.988737 -0.989085
93.000000 -0.988823 -0.989085
93.050000 -0.988915 -0.989085
93.100000 -0.989009 -0.989085
93.150000 -0.989105 -0.989085
93.200000 -0.989200 -0.989085
93.250000 -0.989291 -0.989085
93.300000 -0.989376 -0.989085
93.350000 -0.989453 -0.989085
93.400000 -0.989521 -0.989085
93.450000 -0.989578 -0.989085
93.500000 -0.989622 -0.989085
93.550000 -0.989653 -0.989085
93.600000 -0.989671 -0.989085
93.650000 -0.989673 -0.989085
93.700000 -0.989662 -0.989085
93.750000 -0.989637 -0.989085
93.800000 -0.989599 -0.989085
93.850000 -0.989549 -0.989085
93.900000 -0.989488 -0.989085
93.950000 -0.989418 -0.989085
94.000000 -0.989340 -0.989085
94.050000 -0.989257 -0.989085
94.100000 -0.989171 -0.989085
94.150000 -0.989083 -0.989085
94.200000 -0.988996 -0.989085
94.250000 -0.988912 -0.989085
94.300000 -0.988833 -0.989085
94.350000 -0.988761 -0.989085
94.400000 -0.988697 -0.989085
94.450000 -0.988643 -0.989085
94.500000 -0.988600 -0.989085
94.550000 -0.988569 -0.989085
94.600000 -0.988551 -0.989085
94.650000 -0.988545 -0.989085
94.700000 -0.988553 -0.989085
94.750000 -0.988574 -0.989085
94.800000 -0.988607 -0.989085
94.850000 -0.988651 -0.989085
94.900000 -0.988705 -0.989085
94.950000 -0.988768 -0.989085
95.000000 -0.988837 -0.989085
95.050000 -0.988913 -0.989085
95.100000 -0.988991 -0.989085
95.150000 -0.989072 -0.989085
95.200000 -0.989152 -0.989085
95.250000 -0.989229 -0.989085
95.300000 -0.989303 -0.989085
95.350000 -0.989371 -0.989085
95.400000 -0.989431 -0.989085
95.450000 -0.989482 -0.989085
95.500000 -0.989523 -0.989085
95.550000 -0.989554 -0.989085
95.600000 -0.989573 -0.989085
95.650000 -0.989580 -0.989085
95.700000 -0.989575 -0.989085
95.750000 -0.989558 -0.989085
95.800000 -0.989530 -0.989085
95.850000 -0.989491 -0.989085
95.900000 -0.989444 -0.989085
95.950000 -0.989387 -0.989085
96.000000 -0.989324 -0.989085
96.050000 -0.989256 -0.989085
96.100000 -0.989185 -0.989085
96.150000 -0.989111 -0.989085
96.200000 -0.989038 -0.989085
96.250000 -0.988966 -0.989085
96.300000 -0.988898 -0.989085
96.350000 -0.988835 -0.989085
96.400000 -0.988778 -0.989085
96.450000 -0.988729 -0.989085
96.500000 -0.988690 -0.989085
96.550000 -0.988660 -0.989085
96.600000 -0.988641 -0.989085
96.650000 -0.988632 -0.989085
96.700000 -0.988635 -0.989085
96.750000 -0.988648 -0.989085
96.800000 -0.988672 -0.989085
96.850000 -0.988705 -0.989085
96.900000 -0.988748 -0.989085
96.950000 -0.988798 -0.989085
97.000000 -0.988854 -0.989085
97.050000 -0.988916 -0.989085
97.100000 -0.988981 -0.989085
97.150000 -0.989048 -0.989085
97.200000 -0.989116 -0.989085
97.250000 -0.989182 -0.989085
97.300000 -0.989245 -0.989085
97.350000 -0.989304 -0.989085
97.400000 -0.989357 -0.989085
97.450000 -0.989403 -0.989085
97.500000 -0.989441 -0.989085
97.550000 -0.989470 -0.989085
97.600000 -0.989490 -0.989085
97.650000 -0.989499 -0.989085
97.700000 -0.989499 -0.989085
97.750000 -0.989489 -0.989085
97.800000 -0.989469 -0.989085
97.850000 -0.989440 -0.989085
97.900000 -0.989402 -0.989085
97.950000 -0.989357 -0.989085
98.000000 -0.989307 -0.989085
98.050000 -0.989251 -0.989085
98.100000 -0.989192 -0.989085
98.150000 -0.989130 -0.989085
98.200000 -0.989068 -0.989085
98.250000 -0.989007 -0.989085
98.300000 -0.988949 -0.989085
98.350000 -0.988894 -0.989085
98.400000 -0.988844 -0.989085
98.450000 -0.988801 -0.989085
98.500000 -0.988765 -0.989085
98.550000 -0.988736 -0.989085
98.600000 -0.988717 -0.989085
98.650000 -0.988706 -0.989085
98.700000 -0.988705 -0.989085
98.750000 -0.988713 -0.989085
98.800000 -0.988729 -0.989085
98.850000 -0.988755 -0.989085
98.900000 -0.988788 -0.989085
98.950000 -0.988827 -0.989085
99.000000 -0.988873 -0.989085
99.050000 -0.988923 -0.989085
99.100000 -0.988977 -0.989085
99.150000 -0.989033 -0.989085
99.200000 -0.989090 -0.989085
99.250000 -0.989146 -0.989085
99.300000 -0.989200 -0.989085
99.350000 -0.989251 -0.989085
99.400000 -0.989298 -0.989085
99.450000 -0.989338 -0.989085
99.500000 -0.989373 -0.989085
99.550000 -0.989400 -0.989085
99.600000 -0.989420 -0.989085
99.650000 -0.989431 -0.989085
99.700000 -0.989434 -0.989085
99.750000 -0.989428 -0.989085
99.800000 -0.989414 -0.989085
99.850000 -0.989393 -0.989085
99.900000 -0.989364 -0.989085
99.950000 -0.989329 -0.989085
100.000000 -0.989288 -0.989085
100.050000 -0.989242 -0.989085
100.100000 -0.989193 -0.989085
100.150000 -0.989142 -0.989085
100.200000 -0.989091 -0.989085
100.250000 -0.989039 -0.989085
100.300000 -0.988989 -0.989085
100.350000 -0.988941 -0.989085
100.400000 -0.988898 -0.989085
100.450000 -0.988859 -0.989085
100.500000 -0.988827 -0.989085
100.550000 -0.988800 -0.989085
100.600000 -0.988781 -0.989085
100.650000 -0.988769 -0.989085
100.700000 -0.988765 -0.989085
100.750000 -0.988769 -0.989085
100.800000 -0.988780 -0.989085
100.850000 -0.988799 -0.989085
100.900000 -0.988824 -0.989085
100.950000 -0.988855 -0.989085
101.000000 -0.988892 -0.989085
101.050000 -0.988933 -0.989085
101.100000 -0.988977 -0.989085
101.150000 -0.989024 -0.989085
101.200000 -0.989071 -0.989085
101.250000 -0.989119 -0.989085
101.300000 -0.989165 -0.989085
101.350000 -0.989209 -0.989085
101.400000 -0.989249 -0.989085
101.450000 -0.989286 -0.989085
101.500000 -0.989317 -0.989085
101.550000 -0.989342 -0.989085
101.600000 -0.989361 -0.989085
101.650000 -0.989373 -0.989085
101.700000 -0.989378 -0.989085
101.750000 -0.989376 -0.989085
101.800000 -0.989367 -0.989085
101.850000 -0.989351 -0.989085
101.900000 -0.989329 -0.989085
101.950000 -0.989301 -0.989085
102.000000 -0.989269 -0.989085
102.050000 -0.989232 -0.989085
102.100000 -0.989192 -0.989085
102.150000 -0.989150 -0.989085
102.200000 -0.989106 -0.989085
102.250000 -0.989062 -0.989085
102.300000 -0.989020 -0.989085
102.350000 -0.988979 -0.989085
102.400000 -0.988941 -0.989085
102.450000 -0.988907 -0.989085
102.500000 -0.988878 -0.989085
102.550000 -0.988854 -0.989085
102.600000 -0.988835 -0.989085
102.650000 -0.988823 -0.989085
102.700000 -0.988817 -0.989085
102.750000 -0.988818 -0.989085
102.800000 -0.988825 -0.989085
102.850000 -0.988838 -0.989085
102.900000 -0.988857 -0.989085
102.950000 -0.988882 -0.989085
103.000000 -0.988911 -0.989085
103.050000 -0.988944 -0.989085
103.100000 -0.988980 -0.989085
103.150000 -0.989019 -0.989085
103.200000 -0.989058 -0.989085
103.250000 -0.989098 -0.989085
103.300000 -0.989138 -0.989085
103.350000 -0.989175 -0.989085
103.400000 -0.989211 -0.989085
103.450000 -0.989242 -0.989085
103.500000 -0.989270 -0.989085
103.550000 -0.989293 -0.989085
103.600000 -0.989311 -0.989085
103.650000 -0.989324 -0.989085
103.700000 -0.989330 -0.989085
103.750000 -0.989331 -0.989085
103.800000 -0.989325 -0.989085
103.850000 -0.989314 -0.989085
103.900000 -0.989298 -0.989085
103.950000 -0.989276 -0.989085
104.000000 -0.989250 -0.989085
104.050000 -0.989220 -0.989085
104.100000 -0.989188 -0.989085
104.150000 -0.989153 -0.989085
104.200000 -0.989116 -0.989085
104.250000 -0.989080 -0.989085
104.300000 -0.989044 -0.989085
104.350000 -0.989009 -0.989085
104.400000 -0.988976 -0.989085
104.450000 -0.988946 -0.989085
104.500000 -0.988920 -0.989085
104.550000 -0.988898 -0.989085
104.600000 -0.988880 -0.989085
104.650000 -0.988868 -0.989085
104.700000 -0.988861 -0.989085
104.750000 -0.988860 -0.989085
104.800000 -0.988864 -0.989085
104.850000 -0.988873 -0.989085
104.900000 -0.988887 -0.989085
104.950000 -0.988906 -0.989085
105.000000 -0.988929 -0.989085
105.050000 -0.988956 -0.989085
105.100000 -0.988985 -0.989085
105.150000 -0.989017 -0.989085
105.200000 -0.989050 -0.989085
105.250000 -0.989084 -0.989085
105.300000 -0.989117 -0.989085
105.350000 -0.989149 -0.989085
105.400000 -0.989180 -0.989085
105.450000 -0.989208 -0.989085
105.500000 -0.989232 -0.989085
105.550000 -0.989253 -0.989085
105.600000 -0.989270 -0.989085
105.650000 -0.989282 -0.989085
105.700000 -0.989289 -0.989085
105.750000 -0.989292 -0.989085
105.800000 -0.989289 -0.989085
105.850000 -0.989281 -0.989085
105.900000 -0.989269 -0.989085
105.950000 -0.989253 -0.989085
106.000000 -0.989232 -0.989085
106.050000 -0.989208 -0.989085
106.100000 -0.989182 -0.989085
106.150000 -0.989153 -0.989085
106.200000 -0.989123 -0.989085
106.250000 -0.989092 -0.989085
106.300000 -0.989062 -0.989085
106.350000 -0.989032 -0.989085
106.400000 -0.989003 -0.989085
106.450000 -0.988977 -0.989085
106.500000 -0.988954 -0.989085
106.550000 -0.988934 -0.989085
106.600000 -0.988918 -0.989085
106.650000 -0.988906 -0.989085
106.700000 -0.988899 -0.989085
106.750000 -0.988896 -0.989085
106.800000 -0.988897 -0.989085
106.850000 -0.988903 -0.989085
106.900000 -0.988914 -0.989085
106.950000 -0.988928 -0.989085
107.000000 -0.988946 -0.989085
107.050000 -0.988968 -0.989085
107.100000 -0.988992 -0.989085
107.150000 -0.989018 -0.989085
107.200000 -0.989045 -0.989085
107.250000 -0.989073 -0.989085
107.300000 -0.989101 -0.989085
107.350000 -0.989129 -0.989085
107.400000 -0.989155 -0.989085
107.450000 -0.989179 -0.989085
107.500000 -0.989201 -0.989085
107.550000 -0.989220 -0.989085
107.600000 -0.989236 -0.989085
107.650000 -0.989247 -0.989085
107.700000 -0.989255 -0.989085
107.750000 -0.989258 -0.989085
107.800000 -0.989258 -0.989085
107.850000 -0.989253 -0.989085
107.900000 -0.989244 -0.989085
107.950000 -0.989231 -0.989085
108.000000 -0.989215 -0.989085
108.050000 -0.989196 -0.989085
108.100000 -0.989175 -0.989085
108.150000 -0.989151 -0.989085
108.200000 -0.989126 -0.989085
108.250000 -0.989101 -0.989085
108.300000 -0.989075 -0.989085
108.350000 -0.989050 -0.989085
108.400000 -0.989025 -0.989085
108.450000 -0.989003 -0.989085
108.500000 -0.988982 -0.989085
108.550000 -0.988964 -0.989085
108.600000 -0.988950 -0.989085
108.650000 -0.988938 -0.989085
108.700000 -0.988930 -0.989085
108.750000 -0.988927 -0.989085
108.800000 -0.988926 -0.989085
108.850000 -0.988930 -0.989085
108.900000 -0.988938 -0.989085
108.950000 -0.988948 -0.989085
109.000000 -0.988963 -0.989085
109.050000 -0.988980 -0.989085
109.100000 -0.988999 -0.989085
109.150000 -0.989020 -0.989085
109.200000 -0.989043 -0.989085
109.250000 -0.989066 -0.989085
109.300000 -0.989090 -0.989085
109.350000 -0.989113 -0.989085
109.400000 -0.989136 -0.989085
109.450000 -0.989157 -0.989085
109.500000 -0.989176 -0.989085
109.550000 -0.989193 -0.989085
109.600000 -0.989207 -0.989085
109.650000 -0.989218 -0.989085
109.700000 -0.989226 -0.989085
109.750000 -0.989230 -0.989085
109.800000 -0.989231 -0.989085
109.850000 -0.989228 -0.989085
109.900000 -0.989222 -0.989085
109.950000 -0.989212 -0.989085
110.000000 -0.989200 -0.989085
110.050000 -0.989185 -0.989085
110.100000 -0.989168 -0.989085
110.150000 -0.989148 -0.989085
110.200000 -0.989128 -0.989085
110.250000 -0.989106 -0.989085
110.300000 -0.989085 -0.989085
110.350000 -0.989063 -0.989085
110.400000 -0.989042 -0.989085
110.450000 -0.989023 -0.989085
110.500000 -0.989005 -0.989085
110.550000 -0.988989 -0.989085
110.600000 -0.988976 -0.989085
110.650000 -0.988965 -0.989085
110.700000 -0.988957 -0.989085
110.750000 -0.988953 -0.989085
110.800000 -0.988951 -0.989085
110.850000 -0.988953 -0.989085
110.900000 -0.988958 -0.989085
110.950000 -0.988967 -0.989085
111.000000 -0.988977 -0.989085
111.050000 -0.988991 -0.989085
111.100000 -0.989006 -0.989085
111.150000 -0.989024 -0.989085
111.200000 -0.989042 -0.989085
111.250000 -0.989062 -0.989085
111.300000 -0.989082 -0.989085
111.350000 -0.989101 -0.989085
111.400000 -0.989121 -0.989085
111.450000 -0.989139 -0.989085
111.500000 -0.989156 -0.989085
111.550000 -0.989171 -0.989085
111.600000 -0.989183 -0.989085
111.650000 -0.989194 -0.989085
111.700000 -0.989201 -0.989085
111.750000 -0.989206 -0.989085
111.800000 -0.989207 -0.989085
111.850000 -0.989206 -0.989085
111.900000 -0.989202 -0.989085
111.950000 -0.989195 -0.989085
112.000000 -0.989186 -0.989085
112.050000 -0.989174 -0.989085
112.100000 -0.989160 -0.989085
112.150000 -0.989144 -0.989085
112.200000 -0.989128 -0.989085
112.250000 -0.989110 -0.989085
112.300000 -0.989092 -0.989085
112.350000 -0.989073 -0.989085
112.400000 -0.989056 -0.989085
112.450000 -0.989039 -0.989085
112.500000 -0.989023 -0.989085
112.550000 -0.989009 -0.989085
112.600000 -0.988997 -0.989085
112.650000 -0.988987 -0.989085
112.700000 -0.988980 -0.989085
112.750000 -0.988975 -0.989085
112.800000 -0.988973 -0.989085
112.850000 -0.988974 -0.989085
112.900000 -0.988977 -0.989085
112.950000 -0.988983 -0.989085
113.000000 -0.988991 -0.989085
113.050000 -0.989001 -0.989085
113.100000 -0.989014 -0.989085
113.150000 -0.989028 -0.989085
113.200000 -0.989043 -0.989085
113.250000 -0.989059 -0.989085
113.300000 -0.989076 -0.989085
113.350000 -0.989093 -0.989085
113.400000 -0.989109 -0.989085
113.450000 -0.989125 -0.989085
113.500000 -0.989139 -0.989085
113.550000 -0.989152 -0.989085
113.600000 -0.989164 -0.989085
113.650000 -0.989173 -0.989085
113.700000 -0.989180 -0.989085
113.750000 -0.989185 -0.989085
113.800000 -0.989188 -0.989085
113.850000 -0.989188 -0.989085
113.900000 -0.989185 -0.989085
113.950000 -0.989180 -0.989085
114.000000 -0.989173 -0.989085
114.050000 -0.989164 -0.989085
114.100000 -0.989153 -0.989085
114.150000 -0.989140 -0.989085
114.200000 -0.989126 -0.989085
114.250000 -0.989112 -0.989085
114.300000 -0.989096 -0.989085
114.350000 -0.989081 -0.989085
114.400000 -0.989066 -0.989085
114.450000 -0.989051 -0.989085
114.500000 -0.989038 -0.989085
114.550000 -0.989026 -0.989085
114.600000 -0.989015 -0.989085
114.650000 -0.989006 -0.989085
114.700000 -0.988999 -0.989085
114.750000 -0.988994 -0.989085
114.800000 -0.988991 -0.989085
114.850000 -0.988991 -0.989085
114.900000 -0.988993 -0.989085
114.950000 -0.988997 -0.989085
115.000000 -0.989003 -0.989085
115.050000 -0.989011 -0.989085
115.100000 -0.989021 -0.989085
115.150000 -0.989032 -0.989085
115.200000 -0.989045 -0.989085
115.250000 -0.989058 -0.989085
115.300000 -0.989072 -0.989085
115.350000 -0.989086 -0.989085
115.400000 -0.989100 -0.989085
115.450000 -0.989113 -0.989085
115.500000 -0.989126 -0.989085
115.550000 -0.989138 -0.989085
115.600000 -0.989148 -0.989085
115.650000 -0.989156 -0.989085
115.700000 -0.989163 -0.989085
115.750000 -0.989168 -0.989085
115.800000 -0.989171 -0.989085
115.850000 -0.989171 -0.989085
115.900000 -0.989170 -0.989085
115.950000 -0.989167 -0.989085
116.000000 -0.989161 -0.989085
116.050000 -0.989154 -0.989085
116.100000 -0.989145 -0.989085
116.150000 -0.989135 -0.989085
116.200000 -0.989124 -0.989085
116.250000 -0.989112 -0.989085
116.300000 -0.989099 -0.989085
116.350000 -0.989086 -0.989085
116.400000 -0.989074 -0.989085
116.450000 -0.989061 -0.989085
116.500000 -0.989050 -0.989085
116.550000 -0.989039 -0.989085
116.600000 -0.989029 -0.989085
116.650000 -0.989021 -0.989085
116.700000 -0.989015 -0.989085
116.750000 -0.989010 -0.989085
116.800000 -0.989007 -0.989085
116.850000 -0.989006 -0.989085
116.900000 -0.989007 -0.989085
116.950000 -0.989010 -0.989085
117.000000 -0.989014 -0.989085
117.050000 -0.989020 -0.989085
117.100000 -0.989028 -0.989085
117.150000 -0.989037 -0.989085
117.200000 -0.989047 -0.989085
117.250000 -0.989058 -0.989085
117.300000 -0.989070 -0.989085
117.350000 -0.989082 -0.989085
117.400000 -0.989093 -0.989085
117.450000 -0.989105 -0.989085
117.500000 -0.989116 -0.989085
117.550000 -0.989126 -0.989085
117.600000 -0.989135 -0.989085
117.650000 -0.989142 -0.989085
117.700000 -0.989149 -0.989085
117.750000 -0.989153 -0.989085
117.800000 -0.989156 -0.989085
117.850000 -0.989158 -0.989085
117.900000 -0.989157 -0.989085
117.950000 -0.989155 -0.989085
118.000000 -0.989151 -0.989085
118.050000 -0.989145 -0.989085
118.100000 -0.989139 -0.989085
118.150000 -0.989131 -0.989085
118.200000 -0.989121 -0.989085
118.250000 -0.989112 -0.989085
118.300000 -0.989101 -0.989085
118.350000 -0.989090 -0.989085
118.400000 -0.989080 -0.989085
118.450000 -0.989069 -0.989085
118.500000 -0.989059 -0.989085
118.550000 -0.989050 -0.989085
118.600000 -0.989041 -0.989085
118.650000 -0.989034 -0.989085
118.700000 -0.989028 -0.989085
118.750000 -0.989023 -0.989085
118.800000 -0.989020 -0.989085
118.850000 -0.989019 -0.989085
118.900000 -0.989019 -0.989085
118.950000 -0.989021 -0.989085
119.000000 -0.989024 -0.989085
119.050000 -0.989029 -0.989085
119.100000 -0.989035 -0.989085
119.150000 -0.989042 -0.989085
119.200000 -0.989050 -0.989085
119.250000 -0.989059 -0.989085
119.300000 -0.989069 -0.989085
119.350000 -0.989078 -0.989085
119.400000 -0.989088 -0.989085
119.450000 -0.989098 -0.989085
119.500000 -0.989107 -0.989085
119.550000 -0.989116 -0.989085
119.600000 -0.989124 -0.989085
119.650000 -0.989131 -0.989085
119.700000 -0.989137 -0.989085
119.750000 -0.989141 -0.989085
119.800000 -0.989144 -0.989085
119.850000 -0.989146 -0.989085
119.900000 -0.989146 -0.989085
119.950000 -0.989145 -0.989085
120.000000 -0.989142 -0.989085
120.050000 -0.989138 -0.989085
120.100000 -0.989132 -0.989085
120.150000 -0.989126 -0.989085
120.200000 -0.989119 -0.989085
120.250000 -0.989110 -0.989085
120.300000 -0.989102 -0.989085
120.350000 -0.989093 -0.989085
120.400000 -0.989084 -0.989085
120.450000 -0.989075 -0.989085
120.500000 -0.989066 -0.989085
120.550000 -0.989058 -0.989085
120.600000 -0.989051 -0.989085
120.650000 -0.989044 -0.989085
120.700000 -0.989039 -0.989085
120.750000 -0.989034 -0.989085
120.800000 -0.989031 -0.989085
120.850000 -0.989030 -0.989085
120.900000 -0.989029 -0.989085
120.950000 -0.989030 -0.989085
121.000000 -0.989033 -0.989085
121.050000 -0.989036 -0.989085
121.100000 -0.989041 -0.989085
121.150000 -0.989046 -0.989085
121.200000 -0.989053 -0.989085
121.250000 -0.989060 -0.989085
121.300000 -0.989068 -0.989085
121.350000 -0.989076 -0.989085
121.400000 -0.989085 -0.989085
121.450000 -0.989093 -0.989085
121.500000 -0.989101 -0.989085
121.550000 -0.989108 -0.989085
121.600000 -0.989115 -0.989085
121.650000 -0.989121 -0.989085
121.700000 -0.989127 -0.989085
121.750000 -0.989131 -0.989085
121.800000 -0.989134 -0.989085
121.850000 -0.989136 -0.989085
121.900000 -0.989136 -0.989085
121.950000 -0.989136 -0.989085
122.000000 -0.989134 -0.989085
122.050000 -0.989131 -0.989085
122.100000 -0.989127 -0.989085
122.150000 -0.989122 -0.989085
122.200000 -0.989116 -0.989085
122.250000 -0.989109 -0.989085
122.300000 -0.989102 -0.989085
122.350000 -0.989094 -0.989085
122.400000 -0.989087 -0.989085
122.450000 -0.989079 -0.989085
122.500000 -0.989072 -0.989085
122.550000 -0.989065 -0.989085
122.600000 -0.989058 -0.989085
122.650000 -0.989053 -0.989085
122.700000 -0.989048 -0.989085
122.750000 -0.989044 -0.989085
122.800000 -0.989041 -0.989085
122.850000 -0.989039 -0.989085
122.900000 -0.989038 -0.989085
122.950000 -0.989039 -0.989085
123.000000 -0.989040 -0.989085
123.050000 -0.989043 -0.989085
123.100000 -0.989046 -0.989085
123.150000 -0.989051 -0.989085
123.200000 -0.989056 -0.989085
123.250000 -0.989062 -0.989085
123.300000 -0.989068 -0.989085
123.350000 -0.989075 -0.989085
123.400000 -0.989082 -0.989085
123.450000 -0.989089 -0.989085
123.500000 -0.989096 -0.989085
123.550000 -0.989102 -0.989085
123.600000 -0.989108 -0.989085
123.650000 -0.989114 -0.989085
123.700000 -0.989118 -0.989085
123.750000 -0.989122 -0.989085
123.800000 -0.989125 -0.989085
123.850000 -0.989127 -0.989085
123.900000 -0.989128 -0.989085
123.950000 -0.989128 -0.989085
124.000000 -0.989127 -0.989085
124.050000 -0.989124 -0.989085
124.100000 -0.989121 -0.989085
124.150000 -0.989117 -0.989085
124.200000 -0.989113 -0.989085
124.250000 -0.989107 -0.989085
124.300000 -0.989102 -0.989085
124.350000 -0.989095 -0.989085
124.400000 -0.989089 -0.989085
124.450000 -0.989083 -0.989085
124.500000 -0.989076 -0.989085
124.550000 -0.989070 -0.989085
124.600000 -0.989065 -0.989085
124.650000 -0.989060 -0.989085
124.700000 -0.989055 -0.989085
124.750000 -0.989052 -0.989085
124.800000 -0.989049 -0.989085
124.850000 -0.989047 -0.989085
124.900000 -0.989046 -0.989085
124.950000 -0.989046 -0.989085
125.000000 -0.989047 -0.989085
125.050000 -0.989049 -0.989085
125.100000 -0.989051 -0.989085
125.150000 -0.989055 -0.989085
125.200000 -0.989059 -0.989085
125.250000 -0.989064 -0.989085
125.300000 -0.989069 -0.989085
125.350000 -0.989075 -0.989085
125.400000 -0.989080 -0.989085
125.450000 -0.989086 -0.989085
125.500000 -0.989092 -0.989085
125.550000 -0.989098 -0.989085
125.600000 -0.989103 -0.989085
125.650000 -0.989108 -0.989085
125.700000 -0.989112 -0.989085
125.750000 -0.989115 -0.989085
125.800000 -0.989118 -0.989085
125.850000 -0.989120 -0.989085
125.900000 -0.989121 -0.989085
125.950000 -0.989121 -0.989085
126.000000 -0.989120 -0.989085
126.050000 -0.989119 -0.989085
126.100000 -0.989117 -0.989085
126.150000 -0.989114 -0.989085
126.200000 -0.989110 -0.989085
126.250000 -0.989106 -0.989085
126.300000 -0.989101 -0.989085
126.350000 -0.989096 -0.989085
126.400000 -0.989090 -0.989085
126.450000 -0.989085 -0.989085
126.500000 -0.989080 -0.989085
126.550000 -0.989075 -0.989085
126.600000 -0.989070 -0.989085
126.650000 -0.989065 -0.989085
126.700000 -0.989061 -0.989085
126.750000 -0.989058 -0.989085
126.800000 -0.989055 -0.989085
126.850000 -0.989053 -0.989085
126.900000 -0.989052 -0.989085
126.950000 -0.989052 -0.989085
127.000000 -0.989052 -0.989085
127.050000 -0.989054 -0.989085
127.100000 -0.989056 -0.989085
127.150000 -0.989058 -0.989085
127.200000 -0.989062 -0.989085
127.250000 -0.989066 -0.989085
127.300000 -0.989070 -0.989085
127.350000 -0.989074 -0.989085
127.400000 -0.989079 -0.989085
127.450000 -0.989084 -0.989085
127.500000 -0.989089 -0.989085
127.550000 -0.989094 -0.989085
127.600000 -0.989098 -0.989085
127.650000 -0.989103 -0.989085
127.700000 -0.989106 -0.989085
127.750000 -0.989109 -0.989085
127.800000 -0.989112 -0.989085
127.850000 -0.989114 -0.989085
127.900000 -0.989115 -0.989085
127.950000 -0.989115 -0.989085
128.000000 -0.989115 -0.989085
128.050000 -0.989114 -0.989085
128.100000 -0.989112 -0.989085
128.150000 -0.989110 -0.989085
128.200000 -0.989107 -0.989085
128.250000 -0.989104 -0.989085
128.300000 -0.989100 -0.989085
128.350000 -0.989096 -0.989085
128.400000 -0.989091 -0.989085
128.450000 -0.989087 -0.989085
128.500000 -0.989082 -0.989085
128.550000 -0.989078 -0.989085
128.600000 -0.989074 -0.989085
128.650000 -0.989070 -0.989085
128.700000 -0.989066 -0.989085
128.750000 -0.989063 -0.989085
128.800000 -0.989061 -0.989085
128.850000 -0.989059 -0.989085
128.900000 -0.989058 -0.989085
128.950000 -0.989057 -0.989085
129.000000 -0.989057 -0.989085
129.050000 -0.989058 -0.989085
129.100000 -0.989060 -0.989085
129.150000 -0.989062 -0.989085
129.200000 -0.989064 -0.989085
129.250000 -0.989067 -0.989085
129.300000 -0.989071 -0.989085
129.350000 -0.989075 -0.989085
129.400000 -0.989079 -0.989085
129.450000 -0.989083 -0.989085
129.500000 -0.989087 -0.989085
129.550000 -0.989091 -0.989085
129.600000 -0.989095 -0.989085
129.650000 -0.989098 -0.989085
129.700000 -0.989102 -0.989085
129.750000 -0.989105 -0.989085
129.800000 -0.989107 -0.989085
129.850000 -0.989109 -0.989085
129.900000 -0.989110 -0.989085
129.950000 -0.989110 -0.989085
130.000000 -0.989110 -0.989085
130.050000 -0.989110 -0.989085
130.100000 -0.989109 -0.989085
130.150000 -0.989107 -0.989085
130.200000 -0.989105 -0.989085
130.250000 -0.989102 -0.989085
130.300000 -0.989099 -0.989085
130.350000 -0.989095 -0.989085
130.400000 -0.989092 -0.989085
130.450000 -0.989088 -0.989085
130.500000 -0.989084 -0.989085
130.550000 -0.989080 -0.989085
130.600000 -0.989077 -0.989085
130.650000 -0.989073 -0.989085
130.700000 -0.989070 -0.989085
130.750000 -0.989068 -0.989085
130.800000 -0.989065 -0.989085
130.850000 -0.989064 -0.989085
130.900000 -0.989063 -0.989085
130.950000 -0.989062 -0.989085
131.000000 -0.989062 -0.989085
131.050000 -0.989062 -0.989085
131.100000 -0.989063 -0.989085
131.150000 -0.989065 -0.989085
131.200000 -0.989067 -0.989085
131.250000 -0.989069 -0.989085
131.300000 -0.989072 -0.989085
131.350000 -0.989075 -0.989085
131.400000 -0.989078 -0.989085
131.450000 -0.989082 -0.989085
131.500000 -0.989085 -0.989085
131.550000 -0.989089 -0.989085
131.600000 -0.989092 -0.989085
131.650000 -0.989095 -0.989085
131.700000 -0.989098 -0.989085
131.750000 -0.989101 -0.989085
131.800000 -0.989103 -0.989085
131.850000 -0.989104 -0.989085
131.900000 -0.989106 -0.989085
131.950000 -0.989106 -0.989085
132.000000 -0.989106 -0.989085
132.050000 -0.989106 -0.989085
132.100000 -0.989105 -0.989085
132.150000 -0.989104 -0.989085
132.200000 -0.989102 -0.989085
132.250000 -0.989100 -0.989085
132.300000 -0.989098 -0.989085
132.350000 -0.989095 -0.989085
132.400000 -0.989092 -0.989085
132.450000 -0.989089 -0.989085
132.500000 -0.989085 -0.989085
132.550000 -0.989082 -0.989085
132.600000 -0.989079 -0.989085
132.650000 -0.989076 -0.989085
132.700000 -0.989074 -0.989085
132.750000 -0.989071 -0.989085
132.800000 -0.989069 -0.989085
132.850000 -0.989068 -0.989085
132.900000 -0.989066 -0.989085
132.950000 -0.989066 -0.989085
133.000000 -0.989065 -0.989085
133.050000 -0.989066 -0.989085
133.100000 -0.989066 -0.989085
133.150000 -0.989068 -0.989085
133.200000 -0.989069 -0.989085
133.250000 -0.989071 -0.989085
133.300000 -0.989073 -0.989085
133.350000 -0.989076 -0.989085
133.400000 -0.989078 -0.989085
133.450000 -0.989081 -0.989085
133.500000 -0.989084 -0.989085
133.550000 -0.989087 -0.989085
133.600000 -0.989090 -0.989085
133.650000 -0.989093 -0.989085
133.700000 -0.989095 -0.989085
133.750000 -0.989097 -0.989085
133.800000 -0.989099 -0.989085
133.850000 -0.989101 -0.989085
133.900000 -0.989102 -0.989085
133.950000 -0.989103 -0.989085
134.000000 -0.989103 -0.989085
134.050000 -0.989103 -0.989085
134.100000 -0.989102 -0.989085
134.150000 -0.989101 -0.989085
134.200000 -0.989100 -0.989085
134.250000 -0.989098 -0.989085
134.300000 -0.989096 -0.989085
134.350000 -0.989094 -0.989085
134.400000 -0.989092 -0.989085
134.450000 -0.989089 -0.989085
134.500000 -0.989086 -0.989085
134.550000 -0.989084 -0.989085
134.600000 -0.989081 -0.989085
134.650000 -0.989079 -0.989085
134.700000 -0.989076 -0.989085
134.750000 -0.989074 -0.989085
134.800000 -0.989072 -0.989085
134.850000 -0.989071 -0.989085
134.900000 -0.989070 -0.989085
134.950000 -0.989069 -0.989085
135.000000 -0.989069 -0.989085
135.050000 -0.989069 -0.989085
135.100000 -0.989069 -0.989085
135.150000 -0.989070 -0.989085
135.200000 -0.989071 -0.989085
135.250000 -0.989073 -0.989085
135.300000 -0.989074 -0.989085
135.350000 -0.989076 -0.989085
135.400000 -0.989079 -0.989085
135.450000 -0.989081 -0.989085
135.500000 -0.989083 -0.989085
135.550000 -0.989086 -0.989085
135.600000 -0.989088 -0.989085
135.650000 -0.989091 -0.989085
135.700000 -0.989093 -0.989085
135.750000 -0.989095 -0.989085
135.800000 -0.989096 -0.989085
135.850000 -0.989098 -0.989085
135.900000 -0.989099 -0.989085
135.950000 -0.989100 -0.989085
136.000000 -0.989100 -0.989085
136.050000 -0.989100 -0.989085
136.100000 -0.989100 -0.989085
136.150000 -0.989099 -0.989085
136.200000 -0.989098 -0.989085
136.250000 -0.989097 -0.989085
136.300000 -0.989095 -0.989085
136.350000 -0.989093 -0.989085
136.400000 -0.989091 -0.989085
136.450000 -0.989089 -0.989085
136.500000 -0.989087 -0.989085
136.550000 -0.989085 -0.989085
136.600000 -0.989083 -0.989085
136.650000 -0.989080 -0.989085
136.700000 -0.989078 -0.989085
136.750000 -0.989077 -0.989085
136.800000 -0.989075 -0.989085
136.850000 -0.989074 -0.989085
136.900000 -0.989073 -0.989085
136.950000 -0.989072 -0.989085
137.000000 -0.989071 -0.989085
137.050000 -0.989071 -0.989085
137.100000 -0.989071 -0.989085
137.150000 -0.989072 -0.989085
137.200000 -0.989073 -0.989085
137.250000 -0.989074 -0.989085
137.300000 -0.989075 -0.989085
137.350000 -0.989077 -0.989085
137.400000 -0.989079 -0.989085
137.450000 -0.989081 -0.989085
137.500000 -0.989083 -0.989085
137.550000 -0.989085 -0.989085
137.600000 -0.989087 -0.989085
137.650000 -0.989089 -0.989085
137.700000 -0.989091 -0.989085
137.750000 -0.989093 -0.989085
137.800000 -0.989094 -0.989085
137.850000 -0.989095 -0.989085
137.900000 -0.989096 -0.989085
137.950000 -0.989097 -0.989085
138.000000 -0.989098 -0.989085
138.050000 -0.989098 -0.989085
138.100000 -0.989098 -0.989085
138.150000 -0.989097 -0.989085
138.200000 -0.989096 -0.989085
138.250000 -0.989095 -0.989085
138.300000 -0.989094 -0.989085
138.350000 -0.989093 -0.989085
138.400000 -0.989091 -0.989085
138.450000 -0.989089 -0.989085
138.500000 -0.989087 -0.989085
138.550000 -0.989086 -0.989085
138.600000 -0.989084 -0.989085
138.650000 -0.989082 -0.989085
138.700000 -0.989080 -0.989085
138.750000 -0.989078 -0.989085
138.800000 -0.989077 -0.989085
138.850000 -0.989076 -0.989085
138.900000 -0.989075 -0.989085
138.950000 -0.989074 -0.989085
139.000000 -0.989074 -0.989085
139.050000 -0.989073 -0.989085
139.100000 -0.989074 -0.989085
139.150000 -0.989074 -0.989085
139.200000 -0.989075 -0.989085
139.250000 -0.989075 -0.989085
139.300000 -0.989077 -0.989085
139.350000 -0.989078 -0.989085
139.400000 -0.989079 -0.989085
139.450000 -0.989081 -0.989085
139.500000 -0.989083 -0.989085
139.550000 -0.989084 -0.989085
139.600000 -0.989086 -0.989085
139.650000 -0.989088 -0.989085
139.700000 -0.989089 -0.989085
139.750000 -0.989091 -0.989085
139.800000 -0.989092 -0.989085
139.850000 -0.989093 -0.989085
139.900000 -0.989094 -0.989085
139.950000 -0.989095 -0.989085
140.000000 -0.989095 -0.989085
140.050000 -0.989096 -0.989085
140.100000 -0.989096 -0.989085
140.150000 -0.989095 -0.989085
140.200000 -0.989095 -0.989085
140.250000 -0.989094 -0.989085
140.300000 -0.989093 -0.989085
140.350000 -0.989092 -0.989085
140.400000 -0.989091 -0.989085
140.450000 -0.989089 -0.989085
140.500000 -0.989088 -0.989085
140.550000 -0.989086 -0.989085
140.600000 -0.989084 -0.989085
140.650000 -0.989083 -0.989085
140.700000 -0.989081 -0.989085
140.750000 -0.989080 -0.989085
140.800000 -0.989079 -0.989085
140.850000 -0.989078 -0.989085
140.900000 -0.989077 -0.989085
140.950000 -0.989076 -0.989085
141.000000 -0.989076 -0.989085
141.050000 -0.989075 -0.989085
141.100000 -0.989075 -0.989085
141.150000 -0.989076 -0.989085
141.200000 -0.989076 -0.989085
141.250000 -0.989077 -0.989085
141.300000 -0.989078 -0.989085
141.350000 -0.989079 -0.989085
141.400000 -0.989080 -0.989085
141.450000 -0.989081 -0.989085
141.500000 -0.989082 -0.989085
141.550000 -0.989084 -0.989085
141.600000 -0.989085 -0.989085
141.650000 -0.989087 -0.989085
141.700000 -0.989088 -0.989085
141.750000 -0.989089 -0.989085
141.800000 -0.989091 -0.989085
141.850000 -0.989092 -0.989085
141.900000 -0.989093 -0.989085
141.950000 -0.989093 -0.989085
142.000000 -0.989094 -0.989085
142.050000 -0.989094 -0.989085
142.100000 -0.989094 -0.989085
142.150000 -0.989094 -0.989085
142.200000 -0.989093 -0.989085
142.250000 -0.989093 -0.989085
142.300000 -0.989092 -0.989085
142.350000 -0.989091 -0.989085
142.400000 -0.989090 -0.989085
142.450000 -0.989089 -0.989085
142.500000 -0.989088 -0.989085
142.550000 -0.989086 -0.989085
142.600000 -0.989085 -0.989085
142.650000 -0.989084 -0.989085
142.700000 -0.989082 -0.989085
142.750000 -0.989081 -0.989085
142.800000 -0.989080 -0.989085
142.850000 -0.989079 -0.989085
142.900000 -0.989078 -0.989085
142.950000 -0.989078 -0.989085
143.000000 -0.989077 -0.989085
143.050000 -0.989077 -0.989085
143.100000 -0.989077 -0.989085
143.150000 -0.989077 -0.989085
143.200000 -0.989077 -0.989085
143.250000 -0.989078 -0.989085
143.300000 -0.989078 -0.989085
143.350000 -0.989079 -0.989085
143.400000 -0.989080 -0.989085
143.450000 -0.989081 -0.989085
143.500000 -0.989082 -0.989085
143.550000 -0.989084 -0.989085
143.600000 -0.989085 -0.989085
143.650000 -0.989086 -0.989085
143.700000 -0.989087 -0.989085
143.750000 -0.989088 -0.989085
143.800000 -0.989089 -0.989085
143.850000 -0.989090 -0.989085
143.900000 -0.989091 -0.989085
143.950000 -0.989092 -0.989085
144.000000 -0.989092 -0.989085
144.050000 -0.989092 -0.989085
144.100000 -0.989093 -0.989085
144.150000 -0.989092 -0.989085
144.200000 -0.989092 -0.989085
144.250000 -0.989092 -0.989085
144.300000 -0.989091 -0.989085
144.350000 -0.989091 -0.989085
144.400000 -0.989090 -0.989085
144.450000 -0.989089 -0.989085
144.500000 -0.989088 -0.989085
144.550000 -0.989087 -0.989085
144.600000 -0.989085 -0.989085
144.650000 -0.989084 -0.989085
144.700000 -0.989083 -0.989085
144.750000 -0.989082 -0.989085
144.800000 -0.989081 -0.989085
144.850000 -0.989080 -0.989085
144.900000 -0.989080 -0.989085
144.950000 -0.989079 -0.989085
145.000000 -0.989079 -0.989085
145.050000 -0.989078 -0.989085
145.100000 -0.989078 -0.989085
145.150000 -0.989078 -0.989085
145.200000 -0.989078 -0.989085
145.250000 -0.989079 -0.989085
145.300000 -0.989079 -0.989085
145.350000 -0.989080 -0.989085
145.400000 -0.989081 -0.989085
145.450000 -0.989082 -0.989085
145.500000 -0.989082 -0.989085
145.550000 -0.989083 -0.989085
145.600000 -0.989084 -0.989085
145.650000 -0.989086 -0.989085
145.700000 -0.989087 -0.989085
145.750000 -0.989087 -0.989085
145.800000 -0.989088 -0.989085
145.850000 -0.989089 -0.989085
145.900000 -0.989090 -0.989085
145.950000 -0.989090 -0.989085
146.000000 -0.989091 -0.989085
146.050000 -0.989091 -0.989085
146.100000 -0.989091 -0.989085
146.150000 -0.989091 -0.989085
146.200000 -0.989091 -0.989085
146.250000 -0.989091 -0.989085
146.300000 -0.989090 -0.989085
146.350000 -0.989090 -0.989085
146.400000 -0.989089 -0.989085
146.450000 -0.989088 -0.989085
146.500000 -0.989088 -0.989085
146.550000 -0.989087 -0.989085
146.600000 -0.989086 -0.989085
146.650000 -0.989085 -0.989085
146.700000 -0.989084 -0.989085
146.750000 -0.989083 -0.989085
146.800000 -0.989082 -0.989085
146.850000 -0.989081 -0.989085
146.900000 -0.989081 -0.989085
146.950000 -0.989080 -0.989085
147.000000 -0.989080 -0.989085
147.050000 -0.989079 -0.989085
147.100000 -0.989079 -0.989085
147.150000 -0.989079 -0.989085
147.200000 -0.989079 -0.989085
147.250000 -0.989080 -0.989085
147.300000 -0.989080 -0.989085
147.350000 -0.989081 -0.989085
147.400000 -0.989081 -0.989085
147.450000 -0.989082 -0.989085
147.500000 -0.989083 -0.989085
147.550000 -0.989083 -0.989085
147.600000 -0.989084 -0.989085
147.650000 -0.989085 -0.989085
147.700000 -0.989086 -0.989085
147.750000 -0.989087 -0.989085
147.800000 -0.989088 -0.989085
147.850000 -0.989088 -0.989085
147.900000 -0.989089 -0.989085
147.950000 -0.989089 -0.989085
148.000000 -0.989090 -0.989085
148.050000 -0.989090 -0.989085
148.100000 -0.989090 -0.989085
148.150000 -0.989090 -0.989085
148.200000 -0.989090 -0.989085
148.250000 -0.989090 -0.989085
148.300000 -0.989090 -0.989085
148.350000 -0.989089 -0.989085
148.400000 -0.989089 -0.989085
148.450000 -0.989088 -0.989085
148.500000 -0.989087 -0.989085
148.550000 -0.989087 -0.989085
148.600000 -0.989086 -0.989085
148.650000 -0.989085 -0.989085
148.700000 -0.989084 -0.989085
148.750000 -0.989084 -0.989085
148.800000 -0.989083 -0.989085
148.850000 -0.989082 -0.989085
148.900000 -0.989082 -0.989085
148.950000 -0.989081 -0.989085
149.000000 -0.989081 -0.989085
149.050000 -0.989080 -0.989085
149.100000 -0.989080 -0.989085
149.150000 -0.989080 -0.989085
149.200000 -0.989080 -0.989085
149.250000 -0.989080 -0.989085
149.300000 -0.989081 -0.989085
149.350000 -0.989081 -0.989085
149.400000 -0.989082 -0.989085
149.450000 -0.989082 -0.989085
149.500000 -0.989083 -0.989085
149.550000 -0.989083 -0.989085
149.600000 -0.989084 -0.989085
149.650000 -0.989085 -0.989085
149.700000 -0.989086 -0.989085
149.750000 -0.989086 -0.989085
149.800000 -0.989087 -0.989085
149.850000 -0.989088 -0.989085
149.900000 -0.989088 -0.989085
149.950000 -0.989089 -0.989085
150.000000 -0.989089 -0.989085
150.050000 -0.989089 -0.989085
150.100000 -0.989089 -0.989085
150.150000 -0.989090 -0.989085
150.200000 -0.989089 -0.989085
150.250000 -0.989089 -0.989085
150.300000 -0.989089 -0.989085
150.350000 -0.989089 -0.989085
150.400000 -0.989088 -0.989085
150.450000 -0.989088 -0.989085
150.500000 -0.989087 -0.989085
150.550000 -0.989087 -0.989085
150.600000 -0.989086 -0.989085
150.650000 -0.989085 -0.989085
150.700000 -0.989085 -0.989085
150.750000 -0.989084 -0.989085
150.800000 -0.989083 -0.989085
150.850000 -0.989083 -0.989085
150.900000 -0.989082 -0.989085
150.950000 -0.989082 -0.989085
151.000000 -0.989082 -0.989085
151.050000 -0.989081 -0.989085
151.100000 -0.989081 -0.989085
151.150000 -0.989081 -0.989085
151.200000 -0.989081 -0.989085
151.250000 -0.989081 -0.989085
151.300000 -0.989081 -0.989085
151.350000 -0.989082 -0.989085
151.400000 -0.989082 -0.989085
151.450000 -0.989082 -0.989085
151.500000 -0.989083 -0.989085
151.550000 -0.989083 -0.989085
151.600000 -0.989084 -0.989085
151.650000 -0.989085 -0.989085
151.700000 -0.989085 -0.989085
151.750000 -0.989086 -0.989085
151.800000 -0.989086 -0.989085
151.850000 -0.989087 -0.989085
151.900000 -0.989087 -0.989085
151.950000 -0.989088 -0.989085
152.000000 -0.989088 -0.989085
152.050000 -0.989088 -0.989085
152.100000 -0.989089 -0.989085
152.150000 -0.989089 -0.989085
152.200000 -0.989089 -0.989085
152.250000 -0.989089 -0.989085
152.300000 -0.989089 -0.989085
152.350000 -0.989088 -0.989085
152.400000 -0.989088 -0.989085
152.450000 -0.989088 -0.989085
152.500000 -0.989087 -0.989085
152.550000 -0.989087 -0.989085
152.600000 -0.989086 -0.989085
152.650000 -0.989086 -0.989085
152.700000 -0.989085 -0.989085
152.750000 -0.989084 -0.989085
152.800000 -0.989084 -0.989085
152.850000 -0.989083 -0.989085
152.900000 -0.989083 -0.989085
152.950000 -0.989083 -0.989085
153.000000 -0.989082 -0.989085
153.050000 -0.989082 -0.989085
153.100000 -0.989082 -0.989085
153.150000 -0.989082 -0.989085
153.200000 -0.989082 -0.989085
153.250000 -0.989082 -0.989085
153.300000 -0.989082 -0.989085
153.350000 -0.989082 -0.989085
153.400000 -0.989082 -0.989085
153.450000 -0.989083 -0.989085
153.500000 -0.989083 -0.989085
153.550000 -0.989084 -0.989085
153.600000 -0.989084 -0.989085
153.650000 -0.989085 -0.989085
153.700000 -0.989085 -0.989085
153.750000 -0.989086 -0.989085
153.800000 -0.989086 -0.989085
153.850000 -0.989086 -0.989085
153.900000 -0.989087 -0.989085
153.950000 -0.989087 -0.989085
154.000000 -0.989088 -0.989085
154.050000 -0.989088 -0.989085
154.100000 -0.989088 -0.989085
154.150000 -0.989088 -0.989085
154.200000 -0.989088 -0.989085
154.250000 -0.989088 -0.989085
154.300000 -0.989088 -0.989085
154.350000 -0.989088 -0.989085
154.400000 -0.989088 -0.989085
154.450000 -0.989087 -0.989085
154.500000 -0.989087 -0.989085
154.550000 -0.989087 -0.989085
154.600000 -0.989086 -0.989085
154.650000 -0.989086 -0.989085
154.700000 -0.989085 -0.989085
154.750000 -0.989085 -0.989085
154.800000 -0.989084 -0.989085
154.850000 -0.989084 -0.989085
154.900000 -0.989083 -0.989085
154.950000 -0.989083 -0.989085
155.000000 -0.989083 -0.989085
155.050000 -0.989083 -0.989085
155.100000 -0.989082 -0.989085
155.150000 -0.989082 -0.989085
155.200000 -0.989082 -0.989085
155.250000 -0.989082 -0.989085
155.300000 -0.989082 -0.989085
155.350000 -0.989082 -0.989085
155.400000 -0.989083 -0.989085
155.450000 -0.989083 -0.989085
155.500000 -0.989083 -0.989085
155.550000 -0.989084 -0.989085
155.600000 -0.989084 -0.989085
155.650000 -0.989084 -0.989085
155.700000 -0.989085 -0.989085
155.750000 -0.989085 -0.989085
155.800000 -0.989086 -0.989085
155.850000 -0.989086 -0.989085
155.900000 -0.989086 -0.989085
155.950000 -0.989087 -0.989085
156.000000 -0.989087 -0.989085
156.050000 -0.989087 -0.989085
156.100000 -0.989088 -0.989085
156.150000 -0.989088 -0.989085
156.200000 -0.989088 -0.989085
156.250000 -0.989088 -0.989085
156.300000 -0.989088 -0.989085
156.350000 -0.989087 -0.989085
156.400000 -0.989087 -0.989085
156.450000 -0.989087 -0.989085
156.500000 -0.989087 -0.989085
156.550000 -0.989086 -0.989085
156.600000 -0.989086 -0.989085
156.650000 -0.989086 -0.989085
156.700000 -0.989085 -0.989085
156.750000 -0.989085 -0.989085
156.800000 -0.989085 -0.989085
156.850000 -0.989084 -0.989085
156.900000 -0.989084 -0.989085
156.950000 -0.989084 -0.989085
157.000000 -0.989083 -0.989085
157.050000 -0.989083 -0.989085
157.100000 -0.989083 -0.989085
157.150000 -0.989083 -0.989085
157.200000 -0.989083 -0.989085
157.250000 -0.989083 -0.989085
157.300000 -0.989083 -0.989085
157.350000 -0.989083 -0.989085
157.400000 -0.989083 -0.989085
157.450000 -0.989083 -0.989085
157.500000 -0.989083 -0.989085
157.550000 -0.989084 -0.989085
157.600000 -0.989084 -0.989085
157.650000 -0.989084 -0.989085
157.700000 -0.989085 -0.989085
157.750000 -0.989085 -0.989085
157.800000 -0.989085 -0.989085
157.850000 -0.989086 -0.989085
157.900000 -0.989086 -0.989085
157.950000 -0.989086 -0.989085
158.000000 -0.989087 -0.989085
158.050000 -0.989087 -0.989085
158.100000 -0.989087 -0.989085
158.150000 -0.989087 -0.989085
158.200000 -0.989087 -0.989085
158.250000 -0.989087 -0.989085
158.300000 -0.989087 -0.989085
158.350000 -0.989087 -0.989085
158.400000 -0.989087 -0.989085
158.450000 -0.989087 -0.989085
158.500000 -0.989087 -0.989085
158.550000 -0.989086 -0.989085
158.600000 -0.989086 -0.989085
158.650000 -0.989086 -0.989085
158.700000 -0.989085 -0.989085
158.750000 -0.989085 -0.989085
158.800000 -0.989085 -0.989085
158.850000 -0.989084 -0.989085
158.900000 -0.989084 -0.989085
158.950000 -0.989084 -0.989085
159.000000 -0.989084 -0.989085
159.050000 -0.989083 -0.989085
159.100000 -0.989083 -0.989085
159.150000 -0.989083 -0.989085
159.200000 -0.989083 -0.989085
159.250000 -0.989083 -0.989085
159.300000 -0.989083 -0.989085
159.350000 -0.989083 -0.989085
159.400000 -0.989083 -0.989085
159.450000 -0.989083 -0.989085
159.500000 -0.989084 -0.989085
159.550000 -0.989084 -0.989085
159.600000 -0.989084 -0.989085
159.650000 -0.989084 -0.989085
159.700000 -0.989085 -0.989085
159.750000 -0.989085 -0.989085
159.800000 -0.989085 -0.989085
159.850000 -0.989086 -0.989085
159.900000 -0.989086 -0.989085
159.950000 -0.989086 -0.989085
160.000000 -0.989086 -0.989085
160.050000 -0.989087 -0.989085
160.100000 -0.989087 -0.989085
160.150000 -0.989087 -0.989085
160.200000 -0.989087 -0.989085
160.250000 -0.989087 -0.989085
160.300000 -0.989087 -0.989085
160.350000 -0.989087 -0.989085
160.400000 -0.989087 -0.989085
160.450000 -0.989087 -0.989085
160.500000 -0.989086 -0.989085
160.550000 -0.989086 -0.989085
160.600000 -0.989086 -0.989085
160.650000 -0.989086 -0.989085
160.700000 -0.989085 -0.989085
160.750000 -0.989085 -0.989085
160.800000 -0.989085 -0.989085
160.850000 -0.989085 -0.989085
160.900000 -0.989084 -0.989085
160.950000 -0.989084 -0.989085
161.000000 -0.989084 -0.989085
161.050000 -0.989084 -0.989085
161.100000 -0.989084 -0.989085
161.150000 -0.989083 -0.989085
161.200000 -0.989083 -0.989085
161.250000 -0.989083 -0.989085
161.300000 -0.989083 -0.989085
161.350000 -0.989083 -0.989085
161.400000 -0.989084 -0.989085
161.450000 -0.989084 -0.989085
161.500000 -0.989084 -0.989085
161.550000 -0.989084 -0.989085
161.600000 -0.989084 -0.989085
161.650000 -0.989084 -0.989085
161.700000 -0.989085 -0.989085
161.750000 -0.989085 -0.989085
161.800000 -0.989085 -0.989085
161.850000 -0.989085 -0.989085
161.900000 -0.989086 -0.989085
161.950000 -0.989086 -0.989085
162.000000 -0.989086 -0.989085
162.050000 -0.989086 -0.989085
162.100000 -0.989086 -0.989085
162.150000 -0.989087 -0.989085
162.200000 -0.989087 -0.989085
162.250000 -0.989087 -0.989085
162.300000 -0.989087 -0.989085
162.350000 -0.989087 -0.989085
162.400000 -0.989087 -0.989085
162.450000 -0.989086 -0.989085
162.500000 -0.989086 -0.989085
162.550000 -0.989086 -0.989085
162.600000 -0.989086 -0.989085
162.650000 -0.989086 -0.989085
162.700000 -0.989085 -0.989085
162.750000 -0.989085 -0.989085
162.800000 -0.989085 -0.989085
162.850000 -0.989085 -0.989085
162.900000 -0.989085 -0.989085
162.950000 -0.989084 -0.989085
163.000000 -0.989084 -0.989085
163.050000 -0.989084 -0.989085
163.100000 -0.989084 -0.989085
163.150000 -0.989084 -0.989085
163.200000 -0.989084 -0.989085
163.250000 -0.989084 -0.989085
163.300000 -0.989084 -0.989085
163.350000 -0.989084 -0.989085
163.400000 -0.989084 -0.989085
163.450000 -0.989084 -0.989085
163.500000 -0.989084 -0.989085
163.550000 -0.989084 -0.989085
163.600000 -0.989084 -0.989085
163.650000 -0.989084 -0.989085
163.700000 -0.989085 -0.989085
163.750000 -0.989085 -0.989085
163.800000 -0.989085 -0.989085
163.850000 -0.989085 -0.989085
163.900000 -0.989085 -0.989085
163.950000 -0.989086 -0.989085
164.000000 -0.989086 -0.989085
164.050000 -0.989086 -0.989085
164.100000 -0.989086 -0.989085
164.150000 -0.989086 -0.989085
164.200000 -0.989086 -0.989085
164.250000 -0.989086 -0.989085
164.300000 -0.989086 -0.989085
164.350000 -0.989086 -0.989085
164.400000 -0.989086 -0.989085
164.450000 -0.989086 -0.989085
164.500000 -0.989086 -0.989085
164.550000 -0.989086 -0.989085
164.600000 -0.989086 -0.989085
164.650000 -0.989086 -0.989085
164.700000 -0.989085 -0.989085
164.750000 -0.989085 -0.989085
164.800000 -0.989085 -0.989085
164.850000 -0.989085 -0.989085
164.900000 -0.989085 -0.989085
164.950000 -0.989085 -0.989085
165.000000 -0.989084 -0.989085
165.050000 -0.989084 -0.989085
165.100000 -0.989084 -0.989085
165.150000 -0.989084 -0.989085
165.200000 -0.989084 -0.989085
165.250000 -0.989084 -0.989085
165.300000 -0.989084 -0.989085
165.350000 -0.989084 -0.989085
165.400000 -0.989084 -0.989085
165.450000 -0.989084 -0.989085
165.500000 -0.989084 -0.989085
165.550000 -0.989084 -0.989085
165.600000 -0.989084 -0.989085
165.650000 -0.989084 -0.989085
165.700000 -0.989085 -0.989085
165.750000 -0.989085 -0.989085
165.800000 -0.989085 -0.989085
165.850000 -0.989085 -0.989085
165.900000 -0.989085 -0.989085
165.950000 -0.989086 -0.989085
166.000000 -0.989086 -0.989085
166.050000 -0.989086 -0.989085
166.100000 -0.989086 -0.989085
166.150000 -0.989086 -0.989085
166.200000 -0.989086 -0.989085
166.250000 -0.989086 -0.989085
166.300000 -0.989086 -0.989085
166.350000 -0.989086 -0.989085
166.400000 -0.989086 -0.989085
166.450000 -0.989086 -0.989085
166.500000 -0.989086 -0.989085
166.550000 -0.989086 -0.989085
166.600000 -0.989086 -0.989085
166.650000 -0.989086 -0.989085
166.700000 -0.989085 -0.989085
166.750000 -0.989085 -0.989085
166.800000 -0.989085 -0.989085
166.850000 -0.989085 -0.989085
166.900000 -0.989085 -0.989085
166.950000 -0.989085 -0.989085
167.000000 -0.989085 -0.989085
167.050000 -0.989084 -0.989085
167.100000 -0.989084 -0.989085
167.150000 -0.989084 -0.989085
167.200000 -0.989084 -0.989085
167.250000 -0.989084 -0.989085
167.300000 -0.989084 -0.989085
167.350000 -0.989084 -0.989085
167.400000 -0.989084 -0.989085
167.450000 -0.989084 -0.989085
167.500000 -0.989084 -0.989085
167.550000 -0.989084 -0.989085
167.600000 -0.989084 -0.989085
167.650000 -0.989085 -0.989085
167.700000 -0.989085 -0.989085
167.750000 -0.989085 -0.989085
167.800000 -0.989085 -0.989085
167.850000 -0.989085 -0.989085
167.900000 -0.989085 -0.989085
167.950000 -0.989085 -0.989085
168.000000 -0.989086 -0.989085
168.050000 -0.989086 -0.989085
168.100000 -0.989086 -0.989085
168.150000 -0.989086 -0.989085
168.200000 -0.989086 -0.989085
168.250000 -0.989086 -0.989085
168.300000 -0.989086 -0.989085
168.350000 -0.989086 -0.989085
168.400000 -0.989086 -0.989085
168.450000 -0.989086 -0.989085
168.500000 -0.989086 -0.989085
168.550000 -0.989086 -0.989085
168.600000 -0.989086 -0.989085
168.650000 -0.989086 -0.989085
168.700000 -0.989085 -0.989085
168.750000 -0.989085 -0.989085
168.800000 -0.989085 -0.989085
168.850000 -0.989085 -0.989085
168.900000 -0.989085 -0.989085
168.950000 -0.989085 -0.989085
169.000000 -0.989085 -0.989085
169.050000 -0.989085 -0.989085
169.100000 -0.989084 -0.989085
169.150000 -0.989084 -0.989085
169.200000 -0.989084 -0.989085
169.250000 -0.989084 -0.989085
169.300000 -0.989084 -0.989085
169.350000 -0.989084 -0.989085
169.400000 -0.989084 -0.989085
169.450000 -0.989084 -0.989085
169.500000 -0.989084 -0.989085
169.550000 -0.989084 -0.989085
169.600000 -0.989084 -0.989085
169.650000 -0.989085 -0.989085
169.700000 -0.989085 -0.989085
169.750000 -0.989085 -0.989085
169.800000 -0.989085 -0.989085
169.850000 -0.989085 -0.989085
169.900000 -0.989085 -0.989085
169.950000 -0.989085 -0.989085
170.000000 -0.989085 -0.989085
170.050000 -0.989086 -0.989085
170.100000 -0.989086 -0.989085
170.150000 -0.989086 -0.989085
170.200000 -0.989086 -0.989085
170.250000 -0.989086 -0.989085
170.300000 -0.989086 -0.989085
170.350000 -0.989086 -0.989085
170.400000 -0.989086 -0.989085
170.450000 -0.989086 -0.989085
170.500000 -0.989086 -0.989085
170.550000 -0.989086 -0.989085
170.600000 -0.989086 -0.989085
170.650000 -0.989086 -0.989085
170.700000 -0.989085 -0.989085
170.750000 -0.989085 -0.989085
170.800000 -0.989085 -0.989085
170.850000 -0.989085 -0.989085
170.900000 -0.989085 -0.989085
170.950000 -0.989085 -0.989085
171.000000 -0.989085 -0.989085
171.050000 -0.989085 -0.989085
171.100000 -0.989085 -0.989085
171.150000 -0.989084 -0.989085
171.200000 -0.989084 -0.989085
171.250000 -0.989084 -0.989085
171.300000 -0.989084 -0.989085
171.350000 -0.989084 -0.989085
171.400000 -0.989084 -0.989085
171.450000 -0.989084 -0.989085
171.500000 -0.989084 -0.989085
171.550000 -0.989084 -0.989085
171.600000 -0.989085 -0.989085
171.650000 -0.989085 -0.989085
171.700000 -0.989085 -0.989085
171.750000 -0.989085 -0.989085
171.800000 -0.989085 -0.989085
171.850000 -0.989085 -0.989085
171.900000 -0.989085 -0.989085
171.950000 -0.989085 -0.989085
172.000000 -0.989085 -0.989085
172.050000 -0.989085 -0.989085
172.100000 -0.989085 -0.989085
172.150000 -0.989086 -0.989085
172.200000 -0.989086 -0.989085
172.250000 -0.989086 -0.989085
172.300000 -0.989086 -0.989085
172.350000 -0.989086 -0.989085
172.400000 -0.989086 -0.989085
172.450000 -0.989086 -0.989085
172.500000 -0.989086 -0.989085
172.550000 -0.989086 -0.989085
172.600000 -0.989086 -0.989085
172.650000 -0.989085 -0.989085
172.700000 -0.989085 -0.989085
172.750000 -0.989085 -0.989085
172.800000 -0.989085 -0.989085
172.850000 -0.989085 -0.989085
172.900000 -0.989085 -0.989085
172.950000 -0.989085 -0.989085
173.000000 -0.989085 -0.989085
173.050000 -0.989085 -0.989085
173.100000 -0.989085 -0.989085
173.150000 -0.989085 -0.989085
173.200000 -0.989085 -0.989085
173.250000 -0.989085 -0.989085
173.300000 -0.989084 -0.989085
173.350000 -0.989084 -0.989085
173.400000 -0.989084 -0.989085
173.450000 -0.989084 -0.989085
173.500000 -0.989085 -0.989085
173.550000 -0.989085 -0.989085
173.600000 -0.989085 -0.989085
173.650000 -0.989085 -0.989085
173.700000 -0.989085 -0.989085
173.750000 -0.989085 -0.989085
173.800000 -0.989085 -0.989085
173.850000 -0.989085 -0.989085
173.900000 -0.989085 -0.989085
173.950000 -0.989085 -0.989085
174.000000 -0.989085 -0.989085
174.050000 -0.989085 -0.989085
174.100000 -0.989085 -0.989085
174.150000 -0.989085 -0.989085
174.200000 -0.989086 -0.989085
174.250000 -0.989086 -0.989085
174.300000 -0.989086 -0.989085
174.350000 -0.989086 -0.989085
174.400000 -0.989086 -0.989085
174.450000 -0.989086 -0.989085
174.500000 -0.989086 -0.989085
174.550000 -0.989086 -0.989085
174.600000 -0.989085 -0.989085
174.650000 -0.989085 -0.989085
174.700000 -0.989085 -0.989085
174.750000 -0.989085 -0.989085
174.800000 -0.989085 -0.989085
174.850000 -0.989085 -0.989085
174.900000 -0.989085 -0.989085
174.950000 -0.989085 -0.989085
175.000000 -0.989085 -0.989085
175.050000 -0.989085 -0.989085
175.100000 -0.989085 -0.989085
175.150000 -0.989085 -0.989085
175.200000 -0.989085 -0.989085
175.250000 -0.989085 -0.989085
175.300000 -0.989085 -0.989085
175.350000 -0.989085 -0.989085
175.400000 -0.989085 -0.989085
175.450000 -0.989085 -0.989085
175.500000 -0.989085 -0.989085
175.550000 -0.989085 -0.989085
175.600000 -0.989085 -0.989085
175.650000 -0.989085 -0.989085
175.700000 -0.989085 -0.989085
175.750000 -0.989085 -0.989085
175.800000 -0.989085 -0.989085
175.850000 -0.989085 -0.989085
175.900000 -0.989085 -0.989085
175.950000 -0.989085 -0.989085
176.000000 -0.989085 -0.989085
176.050000 -0.989085 -0.989085
176.100000 -0.989085 -0.989085
176.150000 -0.989085 -0.989085
176.200000 -0.989085 -0.989085
176.250000 -0.989085 -0.989085
176.300000 -0.989085 -0.989085
176.350000 -0.989086 -0.989085
176.400000 -0.989086 -0.989085
176.450000 -0.989086 -0.989085
176.500000 -0.989086 -0.989085
176.550000 -0.989085 -0.989085
176.600000 -0.989085 -0.989085
176.650000 -0.989085 -0.989085
176.700000 -0.989085 -0.989085
176.750000 -0.989085 -0.989085
176.800000 -0.989085 -0.989085
176.850000 -0.989085 -0.989085
176.900000 -0.989085 -0.989085
176.950000 -0.989085 -0.989085
177.000000 -0.989085 -0.989085
177.050000 -0.989085 -0.989085
177.100000 -0.989085 -0.989085
177.150000 -0.989085 -0.989085
177.200000 -0.989085 -0.989085
177.250000 -0.989085 -0.989085
177.300000 -0.989085 -0.989085
177.350000 -0.989085 -0.989085
177.400000 -0.989085 -0.989085
177.450000 -0.989085 -0.989085
177.500000 -0.989085 -0.989085
177.550000 -0.989085 -0.989085
177.600000 -0.989085 -0.989085
177.650000 -0.989085 -0.989085
177.700000 -0.989085 -0.989085
177.750000 -0.989085 -0.989085
177.800000 -0.989085 -0.989085
177.850000 -0.989085 -0.989085
177.900000 -0.989085 -0.989085
177.950000 -0.989085 -0.989085
178.000000 -0.989085 -0.989085
178.050000 -0.989085 -0.989085
178.100000 -0.989085 -0.989085
178.150000 -0.989085 -0.989085
178.200000 -0.989085 -0.989085
178.250000 -0.989085 -0.989085
178.300000 -0.989085 -0.989085
178.350000 -0.989085 -0.989085
178.400000 -0.989085 -0.989085
178.450000 -0.989085 -0.989085
178.500000 -0.989085 -0.989085
178.550000 -0.989085 -0.989085
178.600000 -0.989085 -0.989085
178.650000 -0.989085 -0.989085
178.700000 -0.989085 -0.989085
178.750000 -0.989085 -0.989085
178.800000 -0.989085 -0.989085
178.850000 -0.989085 -0.989085
178.900000 -0.989085 -0.989085
178.950000 -0.989085 -0.989085
179.000000 -0.989085 -0.989085
179.050000 -0.989085 -0.989085
179.100000 -0.989085 -0.989085
179.150000 -0.989085 -0.989085
179.200000 -0.989085 -0.989085
179.250000 -0.989085 -0.989085
179.300000 -0.989085 -0.989085
179.350000 -0.989085 -0.989085
179.400000 -0.989085 -0.989085
179.450000 -0.989085 -0.989085
179.500000 -0.989085 -0.989085
179.550000 -0.989085 -0.989085
179.600000 -0.989085 -0.989085
179.650000 -0.989085 -0.989085
179.700000 -0.989085 -0.989085
179.750000 -0.989085 -0.989085
179.800000 -0.989085 -0.989085
179.850000 -0.989085 -0.989085
179.900000 -0.989085 -0.989085
179.950000 -0.989085 -0.989085
180.000000 -0.989085 -0.989085
180.050000 -0.989085 -0.989085
180.100000 -0.989085 -0.989085
180.150000 -0.989085 -0.989085
180.200000 -0.989085 -0.989085
180.250000 -0.989085 -0.989085
180.300000 -0.989085 -0.989085
180.350000 -0.989085 -0.989085
180.400000 -0.989085 -0.989085
180.450000 -0.989085 -0.989085
180.500000 -0.989085 -0.989085
180.550000 -0.989085 -0.989085
180.600000 -0.989085 -0.989085
180.650000 -0.989085 -0.989085
180.700000 -0.989085 -0.989085
180.750000 -0.989085 -0.989085
180.800000 -0.989085 -0.989085
180.850000 -0.989085 -0.989085
180.900000 -0.989085 -0.989085
180.950000 -0.989085 -0.989085
181.000000 -0.989085 -0.989085
181.050000 -0.989085 -0.989085
181.100000 -0.989085 -0.989085
181.150000 -0.989085 -0.989085
181.200000 -0.989085 -0.989085
181.250000 -0.989085 -0.989085
181.300000 -0.989085 -0.989085
181.350000 -0.989085 -0.989085
181.400000 -0.989085 -0.989085
181.450000 -0.989085 -0.989085
181.500000 -0.989085 -0.989085
181.550000 -0.989085 -0.989085
181.600000 -0.989085 -0.989085
181.650000 -0.989085 -0.989085
181.700000 -0.989085 -0.989085
181.750000 -0.989085 -0.989085
181.800000 -0.989085 -0.989085
181.850000 -0.989085 -0.989085
181.900000 -0.989085 -0.989085
181.950000 -0.989085 -0.989085
182.000000 -0.989085 -0.989085
182.050000 -0.989085 -0.989085
182.100000 -0.989085 -0.989085
182.150000 -0.989085 -0.989085
182.200000 -0.989085 -0.989085
182.250000 -0.989085 -0.989085
182.300000 -0.989085 -0.989085
182.350000 -0.989085 -0.989085
182.400000 -0.989085 -0.989085
182.450000 -0.989085 -0.989085
182.500000 -0.989085 -0.989085
182.550000 -0.989085 -0.989085
182.600000 -0.989085 -0.989085
182.650000 -0.989085 -0.989085
182.700000 -0.989085 -0.989085
182.750000 -0.989085 -0.989085
182.800000 -0.989085 -0.989085
182.850000 -0.989085 -0.989085
182.900000 -0.989085 -0.989085
182.950000 -0.989085 -0.989085
183.000000 -0.989085 -0.989085
183.050000 -0.989085 -0.989085
183.100000 -0.989085 -0.989085
183.150000 -0.989085 -0.989085
183.200000 -0.989085 -0.989085
183.250000 -0.989085 -0.989085
183.300000 -0.989085 -0.989085
183.350000 -0.989085 -0.989085
183.400000 -0.989085 -0.989085
183.450000 -0.989085 -0.989085
183.500000 -0.989085 -0.989085
183.550000 -0.989085 -0.989085
183.600000 -0.989085 -0.989085
183.650000 -0.989085 -0.989085
183.700000 -0.989085 -0.989085
183.750000 -0.989085 -0.989085
183.800000 -0.989085 -0.989085
183.850000 -0.989085 -0.989085
183.900000 -0.989085 -0.989085
183.950000 -0.989085 -0.989085
184.000000 -0.989085 -0.989085
184.050000 -0.989085 -0.989085
184.100000 -0.989085 -0.989085
184.150000 -0.989085 -0.989085
184.200000 -0.989085 -0.989085
184.250000 -0.989085 -0.989085
184.300000 -0.989085 -0.989085
184.350000 -0.989085 -0.989085
184.400000 -0.989085 -0.989085
184.450000 -0.989085 -0.989085
184.500000 -0.989085 -0.989085
184.550000 -0.989085 -0.989085
184.600000 -0.989085 -0.989085
184.650000 -0.989085 -0.989085
184.700000 -0.989085 -0.989085
184.750000 -0.989085 -0.989085
184.800000 -0.989085 -0.989085
184.850000 -0.989085 -0.989085
184.900000 -0.989085 -0.989085
184.950000 -0.989085 -0.989085
185.000000 -0.989085 -0.989085
185.050000 -0.989085 -0.989085
185.100000 -0.989085 -0.989085
185.150000 -0.989085 -0.989085
185.200000 -0.989085 -0.989085
185.250000 -0.989085 -0.989085
185.300000 -0.989085 -0.989085
185.350000 -0.989085 -0.989085
185.400000 -0.989085 -0.989085
185.450000 -0.989085 -0.989085
185.500000 -0.989085 -0.989085
185.550000 -0.989085 -0.989085
185.600000 -0.989085 -0.989085
185.650000 -0.989085 -0.989085
185.700000 -0.989085 -0.989085
185.750000 -0.989085 -0.989085
185.800000 -0.989085 -0.989085
185.850000 -0.989085 -0.989085
185.900000 -0.989085 -0.989085
185.950000 -0.989085 -0.989085
186.000000 -0.989085 -0.989085
186.050000 -0.989085 -0.989085
186.100000 -0.989085 -0.989085
186.150000 -0.989085 -0.989085
186.200000 -0.989085 -0.989085
186.250000 -0.989085 -0.989085
186.300000 -0.989085 -0.989085
186.350000 -0.989085 -0.989085
186.400000 -0.989085 -0.989085
186.450000 -0.989085 -0.989085
186.500000 -0.989085 -0.989085
186.550000 -0.989085 -0.989085
186.600000 -0.989085 -0.989085
186.650000 -0.989085 -0.989085
186.700000 -0.989085 -0.989085
186.750000 -0.989085 -0.989085
186.800000 -0.989085 -0.989085
186.850000 -0.989085 -0.989085
186.900000 -0.989085 -0.989085
