fit_time[ns] Functional_fit[mV] Thermal_fit[mV]
3.700000 41.745858 39.989165
3.750000 41.288043 39.306662
3.800000 40.789735 38.635856
3.850000 40.246649 37.976533
3.900000 39.655970 37.328481
3.950000 39.016410 36.691495
4.000000 38.328229 36.065371
4.050000 37.593209 35.449912
4.100000 36.814593 34.844924
4.150000 35.996992 34.250215
4.200000 35.146247 33.665599
4.250000 34.269273 33.090893
4.300000 33.373864 32.525919
4.350000 32.468486 31.970500
4.400000 31.562053 31.424464
4.450000 30.663689 30.887642
4.500000 29.782487 30.359870
4.550000 28.927279 29.840984
4.600000 28.106399 29.330826
4.650000 27.327475 28.829239
4.700000 26.597232 28.336071
4.750000 25.921323 27.851172
4.800000 25.304184 27.374394
4.850000 24.748931 26.905595
4.900000 24.257279 26.444631
4.950000 23.829508 25.991365
5.000000 23.464458 25.545660
5.050000 23.159569 25.107384
5.100000 22.910948 24.676404
5.150000 22.713477 24.252594
5.200000 22.560949 23.835826
5.250000 22.446225 23.425977
5.300000 22.361430 23.022927
5.350000 22.298146 22.626556
5.400000 22.247634 22.236747
5.450000 22.201056 21.853387
5.500000 22.149696 21.476362
5.550000 22.085183 21.105563
5.600000 21.999697 20.740882
5.650000 21.886166 20.382211
5.700000 21.738435 20.029448
5.750000 21.551420 19.682490
5.800000 21.321225 19.341236
5.850000 21.045230 19.005588
5.900000 20.722150 18.675450
5.950000 20.352058 18.350726
6.000000 19.936366 18.031324
6.050000 19.477784 17.717152
6.100000 18.980234 17.408120
6.150000 18.448743 17.104141
6.200000 17.889306 16.805127
6.250000 17.308718 16.510995
6.300000 16.714400 16.221659
6.350000 16.114197 15.937040
6.400000 15.516175 15.657056
6.450000 14.928411 15.381629
6.500000 14.358784 15.110680
6.550000 13.814772 14.844135
6.600000 13.303261 14.581918
6.650000 12.830372 14.323956
6.700000 12.401309 14.070177
6.750000 12.020223 13.820510
6.800000 11.690122 13.574887
6.850000 11.412788 13.333237
6.900000 11.188747 13.095495
6.950000 11.017257 12.861595
7.000000 10.896335 12.631472
7.050000 10.822813 12.405063
7.100000 10.792430 12.182305
7.150000 10.799941 11.963137
7.200000 10.839256 11.747499
7.250000 10.903607 11.535332
7.300000 10.985716 11.326578
7.350000 11.077988 11.121179
7.400000 11.172702 10.919080
7.450000 11.262215 10.720226
7.500000 11.339146 10.524563
7.550000 11.396571 10.332037
7.600000 11.428189 10.142596
7.650000 11.428483 9.956189
7.700000 11.392849 9.772766
7.750000 11.317713 9.592277
7.800000 11.200609 9.414674
7.850000 11.040236 9.239908
7.900000 10.836484 9.067933
7.950000 10.590424 8.898703
8.000000 10.304273 8.732172
8.050000 9.981331 8.568296
8.100000 9.625884 8.407030
8.150000 9.243091 8.248333
8.200000 8.838841 8.092161
8.250000 8.419601 7.938473
8.300000 7.992241 7.787229
8.350000 7.563856 7.638387
8.400000 7.141585 7.491910
8.450000 6.732423 7.347757
8.500000 6.343042 7.205891
8.550000 5.979624 7.066274
8.600000 5.647704 6.928870
8.650000 5.352032 6.793642
8.700000 5.096452 6.660554
8.750000 4.883816 6.529573
8.800000 4.715909 6.400663
8.850000 4.593414 6.273791
8.900000 4.515901 6.148923
8.950000 4.481841 6.026027
9.000000 4.488656 5.905070
9.050000 4.532787 5.786022
9.100000 4.609793 5.668851
9.150000 4.714471 5.553527
9.200000 4.840990 5.440019
9.250000 4.983045 5.328299
9.300000 5.134022 5.218337
9.350000 5.287167 5.110105
9.400000 5.435759 5.003574
9.450000 5.573284 4.898718
9.500000 5.693594 4.795509
9.550000 5.791067 4.693921
9.600000 5.860744 4.593927
9.650000 5.898450 4.495502
9.700000 5.900896 4.398621
9.750000 5.865759 4.303258
9.800000 5.791730 4.209389
9.850000 5.678543 4.116990
9.900000 5.526975 4.026038
9.950000 5.338817 3.936509
10.000000 5.116820 3.848380
10.050000 4.864620 3.761629
10.100000 4.586637 3.676234
10.150000 4.287957 3.592173
10.200000 3.974198 3.509424
10.250000 3.651357 3.427967
10.300000 3.325661 3.347781
10.350000 3.003400 3.268846
10.400000 2.690767 3.191141
10.450000 2.393699 3.114647
10.500000 2.117727 3.039344
10.550000 1.867837 2.965214
10.600000 1.648344 2.892238
10.650000 1.462788 2.820397
10.700000 1.313843 2.749674
10.750000 1.203261 2.680050
10.800000 1.131826 2.611509
10.850000 1.099344 2.544032
10.900000 1.104653 2.477603
10.950000 1.145659 2.412205
11.000000 1.219392 2.347822
11.050000 1.322094 2.284438
11.100000 1.449314 2.222037
11.150000 1.596027 2.160602
11.200000 1.756770 2.100120
11.250000 1.925778 2.040575
11.300000 2.097141 1.981952
11.350000 2.264947 1.924236
11.400000 2.423440 1.867413
11.450000 2.567163 1.811469
11.500000 2.691094 1.756390
11.550000 2.790775 1.702163
11.600000 2.862419 1.648773
11.650000 2.903003 1.596209
11.700000 2.910340 1.544455
11.750000 2.883130 1.493501
11.800000 2.820984 1.443333
11.850000 2.724434 1.393939
11.900000 2.594904 1.345307
11.950000 2.434677 1.297424
12.000000 2.246822 1.250279
12.050000 2.035116 1.203860
12.100000 1.803941 1.158157
12.150000 1.558163 1.113157
12.200000 1.303013 1.068849
12.250000 1.043941 1.025223
12.300000 0.786481 0.982269
12.350000 0.536105 0.939974
12.400000 0.298088 0.898330
12.450000 0.077366 0.857326
12.500000 -0.121579 0.816952
12.550000 -0.294840 0.777198
12.600000 -0.439174 0.738054
12.650000 -0.552086 0.699511
12.700000 -0.631883 0.661559
12.750000 -0.677720 0.624189
12.800000 -0.689609 0.587393
12.850000 -0.668415 0.551160
12.900000 -0.615832 0.515483
12.950000 -0.534330 0.480352
13.000000 -0.427091 0.445760
13.050000 -0.297917 0.411697
13.100000 -0.151137 0.378155
13.150000 0.008514 0.345127
13.200000 0.176015 0.312604
13.250000 0.346192 0.280578
13.300000 0.513846 0.249043
13.350000 0.673892 0.217989
13.400000 0.821486 0.187410
13.450000 0.952144 0.157298
13.500000 1.061861 0.127645
13.550000 1.147202 0.098446
13.600000 1.205394 0.069692
13.650000 1.234385 0.041377
13.700000 1.232899 0.013494
13.750000 1.200455 -0.013963
13.800000 1.137382 -0.041002
13.850000 1.044801 -0.067629
13.900000 0.924590 -0.093850
13.950000 0.779333 -0.119671
14.000000 0.612248 -0.145099
14.050000 0.427102 -0.170140
14.100000 0.228106 -0.194800
14.150000 0.019812 -0.219084
14.200000 -0.193014 -0.242999
14.250000 -0.405511 -0.266550
14.300000 -0.612848 -0.289743
14.350000 -0.810349 -0.312583
14.400000 -0.993613 -0.335076
14.450000 -1.158621 -0.357227
14.500000 -1.301842 -0.379041
14.550000 -1.420314 -0.400524
14.600000 -1.511720 -0.421681
14.650000 -1.574446 -0.442517
14.700000 -1.607609 -0.463036
14.750000 -1.611085 -0.483244
14.800000 -1.585500 -0.503146
14.850000 -1.532212 -0.522745
14.900000 -1.453272 -0.542047
14.950000 -1.351366 -0.561057
15.000000 -1.229743 -0.579779
15.050000 -1.092126 -0.598216
15.100000 -0.942618 -0.616375
15.150000 -0.785590 -0.634258
15.200000 -0.625571 -0.651871
15.250000 -0.467129 -0.669217
15.300000 -0.314755 -0.686300
15.350000 -0.172749 -0.703125
15.400000 -0.045108 -0.719695
15.450000 0.064568 -0.736015
15.500000 0.153171 -0.752088
15.550000 0.218160 -0.767918
15.600000 0.257618 -0.783508
15.650000 0.270304 -0.798863
15.700000 0.255673 -0.813986
15.750000 0.213893 -0.828880
15.800000 0.145826 -0.843550
15.850000 0.053013 -0.857998
15.900000 -0.062382 -0.872228
15.950000 -0.197622 -0.886243
16.000000 -0.349474 -0.900046
16.050000 -0.514300 -0.913641
16.100000 -0.688144 -0.927032
16.150000 -0.866843 -0.940220
16.200000 -1.046129 -0.953209
16.250000 -1.221746 -0.966003
16.300000 -1.389552 -0.978604
16.350000 -1.545628 -0.991015
16.400000 -1.686375 -1.003239
16.450000 -1.808609 -1.015279
16.500000 -1.909631 -1.027137
16.550000 -1.987301 -1.038817
16.600000 -2.040086 -1.050321
16.650000 -2.067094 -1.061652
16.700000 -2.068097 -1.072813
16.750000 -2.043527 -1.083805
16.800000 -1.994463 -1.094633
16.850000 -1.922602 -1.105297
16.900000 -1.830208 -1.115801
16.950000 -1.720050 -1.126147
17.000000 -1.595331 -1.136338
17.050000 -1.459600 -1.146376
17.100000 -1.316664 -1.156262
17.150000 -1.170481 -1.166001
17.200000 -1.025065 -1.175593
17.250000 -0.884378 -1.185040
17.300000 -0.752234 -1.194347
17.350000 -0.632198 -1.203513
17.400000 -0.527497 -1.212542
17.450000 -0.440943 -1.221435
17.500000 -0.374859 -1.230195
17.550000 -0.331027 -1.238824
17.600000 -0.310646 -1.247323
17.650000 -0.314299 -1.255695
17.700000 -0.341951 -1.263941
17.750000 -0.392948 -1.272064
17.800000 -0.466040 -1.280065
17.850000 -0.559416 -1.287946
17.900000 -0.670756 -1.295709
17.950000 -0.797292 -1.303355
18.000000 -0.935881 -1.310888
18.050000 -1.083091 -1.318307
18.100000 -1.235288 -1.325616
18.150000 -1.388733 -1.332815
18.200000 -1.539676 -1.339906
18.250000 -1.684451 -1.346891
18.300000 -1.819575 -1.353772
18.350000 -1.941829 -1.360549
18.400000 -2.048345 -1.367226
18.450000 -2.136671 -1.373803
18.500000 -2.204835 -1.380281
18.550000 -2.251394 -1.386662
18.600000 -2.275461 -1.392948
18.650000 -2.276731 -1.399141
18.700000 -2.255481 -1.405240
18.750000 -2.212560 -1.411249
18.800000 -2.149364 -1.417168
18.850000 -2.067796 -1.422998
18.900000 -1.970214 -1.428741
18.950000 -1.859370 -1.434399
19.000000 -1.738333 -1.439972
19.050000 -1.610412 -1.445462
19.100000 -1.479066 -1.450870
19.150000 -1.347819 -1.456198
19.200000 -1.220166 -1.461446
19.250000 -1.099487 -1.466616
19.300000 -0.988955 -1.471708
19.350000 -0.891465 -1.476725
19.400000 -0.809554 -1.481667
19.450000 -0.745343 -1.486535
19.500000 -0.700484 -1.491331
19.550000 -0.676121 -1.496056
19.600000 -0.672863 -1.500709
19.650000 -0.690776 -1.505294
19.700000 -0.729378 -1.509810
19.750000 -0.787663 -1.514260
19.800000 -0.864121 -1.518642
19.850000 -0.956791 -1.522960
19.900000 -1.063304 -1.527213
19.950000 -1.180953 -1.531404
20.000000 -1.306760 -1.535531
20.050000 -1.437559 -1.539598
20.100000 -1.570074 -1.543603
20.150000 -1.701005 -1.547550
20.200000 -1.827113 -1.551437
20.250000 -1.945302 -1.555267
20.300000 -2.052699 -1.559040
20.350000 -2.146722 -1.562757
20.400000 -2.225150 -1.566418
20.450000 -2.286172 -1.570026
20.500000 -2.328433 -1.573579
20.550000 -2.351067 -1.577080
20.600000 -2.353715 -1.580529
20.650000 -2.336529 -1.583926
20.700000 -2.300167 -1.587273
20.750000 -2.245771 -1.590571
20.800000 -2.174939 -1.593819
20.850000 -2.089674 -1.597019
20.900000 -1.992336 -1.600172
20.950000 -1.885577 -1.603278
21.000000 -1.772271 -1.606338
21.050000 -1.655439 -1.609352
21.100000 -1.538174 -1.612322
21.150000 -1.423554 -1.615248
21.200000 -1.314572 -1.618130
21.250000 -1.214053 -1.620970
21.300000 -1.124588 -1.623768
21.350000 -1.048464 -1.626524
21.400000 -0.987614 -1.629239
21.450000 -0.943564 -1.631914
21.500000 -0.917398 -1.634549
21.550000 -0.909738 -1.637145
21.600000 -0.920723 -1.639703
21.650000 -0.950016 -1.642223
21.700000 -0.996810 -1.644706
21.750000 -1.059857 -1.647152
21.800000 -1.137499 -1.649561
21.850000 -1.227715 -1.651935
21.900000 -1.328174 -1.654274
21.950000 -1.436297 -1.656579
22.000000 -1.549327 -1.658849
22.050000 -1.664396 -1.661085
22.100000 -1.778603 -1.663289
22.150000 -1.889089 -1.665460
22.200000 -1.993105 -1.667598
22.250000 -2.088088 -1.669706
22.300000 -2.171719 -1.671782
22.350000 -2.241988 -1.673827
22.400000 -2.297236 -1.675842
22.450000 -2.336200 -1.677827
22.500000 -2.358041 -1.679783
22.550000 -2.362364 -1.681710
22.600000 -2.349222 -1.683609
22.650000 -2.319117 -1.685479
22.700000 -2.272978 -1.687322
22.750000 -2.212139 -1.689138
22.800000 -2.138302 -1.690927
22.850000 -2.053487 -1.692689
22.900000 -1.959982 -1.694426
22.950000 -1.860283 -1.696136
23.000000 -1.757026 -1.697822
23.050000 -1.652921 -1.699483
23.100000 -1.550680 -1.701119
23.150000 -1.452950 -1.702731
23.200000 -1.362243 -1.704319
23.250000 -1.280876 -1.705884
23.300000 -1.210909 -1.707425
23.350000 -1.154098 -1.708944
23.400000 -1.111850 -1.710441
23.450000 -1.085187 -1.711915
23.500000 -1.074728 -1.713368
23.550000 -1.080670 -1.714800
23.600000 -1.102791 -1.716210
23.650000 -1.140454 -1.717599
23.700000 -1.192628 -1.718968
23.750000 -1.257918 -1.720317
23.800000 -1.334601 -1.721646
23.850000 -1.420673 -1.722955
23.900000 -1.513903 -1.724245
23.950000 -1.611892 -1.725516
24.000000 -1.712133 -1.726769
24.050000 -1.812077 -1.728003
24.100000 -1.909201 -1.729218
24.150000 -2.001068 -1.730416
24.200000 -2.085394 -1.731596
24.250000 -2.160100 -1.732759
24.300000 -2.223367 -1.733905
24.350000 -2.273681 -1.735034
24.400000 -2.309868 -1.736146
24.450000 -2.331125 -1.737242
24.500000 -2.337034 -1.738322
24.550000 -2.327572 -1.739385
24.600000 -2.303110 -1.740434
24.650000 -2.264401 -1.741466
24.700000 -2.212555 -1.742484
24.750000 -2.149012 -1.743487
24.800000 -2.075501 -1.744475
24.850000 -1.993994 -1.745448
24.900000 -1.906656 -1.746407
24.950000 -1.815784 -1.747352
25.000000 -1.723752 -1.748283
25.050000 -1.632947 -1.749201
25.100000 -1.545709 -1.750104
25.150000 -1.464268 -1.750995
25.200000 -1.390696 -1.751873
25.250000 -1.326845 -1.752737
25.300000 -1.274308 -1.753589
25.350000 -1.234376 -1.754429
25.400000 -1.208010 -1.755256
25.450000 -1.195817 -1.756071
25.500000 -1.198036 -1.756874
25.550000 -1.214537 -1.757665
25.600000 -1.244822 -1.758445
25.650000 -1.288047 -1.759213
25.700000 -1.343039 -1.759970
25.750000 -1.408333 -1.760716
25.800000 -1.482209 -1.761450
25.850000 -1.562739 -1.762174
25.900000 -1.647837 -1.762888
25.950000 -1.735312 -1.763591
26.000000 -1.822929 -1.764284
26.050000 -1.908462 -1.764966
26.100000 -1.989754 -1.765639
26.150000 -2.064768 -1.766301
26.200000 -2.131644 -1.766954
26.250000 -2.188741 -1.767597
26.300000 -2.234677 -1.768231
26.350000 -2.268369 -1.768856
26.400000 -2.289049 -1.769471
26.450000 -2.296290 -1.770078
26.500000 -2.290011 -1.770675
26.550000 -2.270478 -1.771264
26.600000 -2.238292 -1.771844
26.650000 -2.194377 -1.772416
26.700000 -2.139946 -1.772979
26.750000 -2.076478 -1.773535
26.800000 -2.005671 -1.774081
26.850000 -1.929399 -1.774620
26.900000 -1.849664 -1.775151
26.950000 -1.768543 -1.775675
27.000000 -1.688135 -1.776190
27.050000 -1.610506 -1.776698
27.100000 -1.537639 -1.777199
27.150000 -1.471378 -1.777692
27.200000 -1.413390 -1.778178
27.250000 -1.365116 -1.778657
27.300000 -1.327740 -1.779129
27.350000 -1.302159 -1.779594
27.400000 -1.288962 -1.780052
27.450000 -1.288416 -1.780504
27.500000 -1.300465 -1.780949
27.550000 -1.324727 -1.781387
27.600000 -1.360514 -1.781819
27.650000 -1.406843 -1.782245
27.700000 -1.462471 -1.782664
27.750000 -1.525924 -1.783078
27.800000 -1.595537 -1.783485
27.850000 -1.669498 -1.783886
27.900000 -1.745895 -1.784282
27.950000 -1.822769 -1.784671
28.000000 -1.898158 -1.785055
28.050000 -1.970152 -1.785434
28.100000 -2.036941 -1.785807
28.150000 -2.096860 -1.786174
28.200000 -2.148429 -1.786536
28.250000 -2.190394 -1.786893
28.300000 -2.221753 -1.787244
28.350000 -2.241781 -1.787591
28.400000 -2.250051 -1.787932
28.450000 -2.246437 -1.788268
28.500000 -2.231118 -1.788600
28.550000 -2.204572 -1.788926
28.600000 -2.167561 -1.789248
28.650000 -2.121109 -1.789565
28.700000 -2.066475 -1.789878
28.750000 -2.005120 -1.790186
28.800000 -1.938666 -1.790489
28.850000 -1.868856 -1.790788
28.900000 -1.797505 -1.791083
28.950000 -1.726457 -1.791373
29.000000 -1.657537 -1.791659
29.050000 -1.592501 -1.791941
29.100000 -1.532996 -1.792219
29.150000 -1.480516 -1.792493
29.200000 -1.436363 -1.792763
29.250000 -1.401620 -1.793029
29.300000 -1.377122 -1.793291
29.350000 -1.363434 -1.793549
29.400000 -1.360842 -1.793803
29.450000 -1.369346 -1.794054
29.500000 -1.388661 -1.794301
29.550000 -1.418228 -1.794544
29.600000 -1.457230 -1.794784
29.650000 -1.504612 -1.795020
29.700000 -1.559112 -1.795253
29.750000 -1.619294 -1.795483
29.800000 -1.683587 -1.795709
29.850000 -1.750325 -1.795932
29.900000 -1.817787 -1.796152
29.950000 -1.884250 -1.796368
30.000000 -1.948024 -1.796581
30.050000 -2.007500 -1.796792
30.100000 -2.061189 -1.796999
30.150000 -2.107762 -1.797203
30.200000 -2.146078 -1.797404
30.250000 -2.175217 -1.797602
30.300000 -2.194497 -1.797797
30.350000 -2.203496 -1.797990
30.400000 -2.202056 -1.798180
30.450000 -2.190288 -1.798366
30.500000 -2.168566 -1.798551
30.550000 -2.137515 -1.798732
30.600000 -2.097997 -1.798911
30.650000 -2.051084 -1.799087
30.700000 -1.998029 -1.799261
30.750000 -1.940235 -1.799432
30.800000 -1.879217 -1.799601
30.850000 -1.816563 -1.799767
30.900000 -1.753890 -1.799931
30.950000 -1.692807 -1.800092
31.000000 -1.634872 -1.800251
31.050000 -1.581549 -1.800408
31.100000 -1.534178 -1.800563
31.150000 -1.493935 -1.800715
31.200000 -1.461808 -1.800865
31.250000 -1.438569 -1.801013
31.300000 -1.424757 -1.801158
31.350000 -1.420669 -1.801302
31.400000 -1.426348 -1.801443
31.450000 -1.441588 -1.801583
31.500000 -1.465941 -1.801720
31.550000 -1.498725 -1.801856
31.600000 -1.539050 -1.801989
31.650000 -1.585837 -1.802120
31.700000 -1.637851 -1.802250
31.750000 -1.693728 -1.802378
31.800000 -1.752016 -1.802504
31.850000 -1.811212 -1.802628
31.900000 -1.869796 -1.802750
31.950000 -1.926278 -1.802870
32.000000 -1.979228 -1.802989
32.050000 -2.027318 -1.803106
32.100000 -2.069351 -1.803221
32.150000 -2.104296 -1.803335
32.200000 -2.131307 -1.803447
32.250000 -2.149748 -1.803557
32.300000 -2.159207 -1.803666
32.350000 -2.159503 -1.803773
32.400000 -2.150692 -1.803878
32.450000 -2.133063 -1.803982
32.500000 -2.107126 -1.804085
32.550000 -2.073604 -1.804186
32.600000 -2.033407 -1.804286
32.650000 -1.987611 -1.804384
32.700000 -1.937426 -1.804480
32.750000 -1.884168 -1.804576
32.800000 -1.829224 -1.804670
32.850000 -1.774012 -1.804762
32.900000 -1.719951 -1.804853
32.950000 -1.668418 -1.804943
33.000000 -1.620719 -1.805032
33.050000 -1.578050 -1.805119
33.100000 -1.541473 -1.805205
33.150000 -1.511886 -1.805290
33.200000 -1.490002 -1.805374
33.250000 -1.476333 -1.805456
33.300000 -1.471177 -1.805537
33.350000 -1.474612 -1.805617
33.400000 -1.486494 -1.805696
33.450000 -1.506467 -1.805774
33.500000 -1.533968 -1.805850
33.550000 -1.568245 -1.805926
33.600000 -1.608379 -1.806000
33.650000 -1.653305 -1.806073
33.700000 -1.701845 -1.806145
33.750000 -1.752733 -1.806217
33.800000 -1.804654 -1.806287
33.850000 -1.856274 -1.806356
33.900000 -1.906276 -1.806424
33.950000 -1.953393 -1.806491
34.000000 -1.996438 -1.806557
34.050000 -2.034340 -1.806622
34.100000 -2.066163 -1.806687
34.150000 -2.091136 -1.806750
34.200000 -2.108665 -1.806812
34.250000 -2.118353 -1.806874
34.300000 -2.120005 -1.806934
34.350000 -2.113633 -1.806994
34.400000 -2.099455 -1.807053
34.450000 -2.077886 -1.807111
34.500000 -2.049529 -1.807168
34.550000 -2.015156 -1.807224
34.600000 -1.975688 -1.807280
34.650000 -1.932169 -1.807335
34.700000 -1.885741 -1.807389
34.750000 -1.837614 -1.807442
34.800000 -1.789031 -1.807494
34.850000 -1.741241 -1.807546
34.900000 -1.695462 -1.807597
34.950000 -1.652854 -1.807647
35.000000 -1.614489 -1.807696
35.050000 -1.581320 -1.807745
35.100000 -1.554165 -1.807793
35.150000 -1.533679 -1.807840
35.200000 -1.520345 -1.807887
35.250000 -1.514457 -1.807933
35.300000 -1.516118 -1.807978
35.350000 -1.525238 -1.808023
35.400000 -1.541534 -1.808067
35.450000 -1.564544 -1.808110
35.500000 -1.593636 -1.808153
35.550000 -1.628026 -1.808195
35.600000 -1.666799 -1.808236
35.650000 -1.708937 -1.808277
35.700000 -1.753339 -1.808317
35.750000 -1.798855 -1.808357
35.800000 -1.844314 -1.808396
35.850000 -1.888554 -1.808435
35.900000 -1.930452 -1.808473
35.950000 -1.968951 -1.808510
36.000000 -2.003090 -1.808547
36.050000 -2.032025 -1.808583
36.100000 -2.055051 -1.808619
36.150000 -2.071617 -1.808655
36.200000 -2.081344 -1.808690
36.250000 -2.084029 -1.808724
36.300000 -2.079650 -1.808758
36.350000 -2.068366 -1.808791
36.400000 -2.050513 -1.808824
36.450000 -2.026593 -1.808856
36.500000 -1.997257 -1.808888
36.550000 -1.963293 -1.808920
36.600000 -1.925602 -1.808951
36.650000 -1.885174 -1.808981
36.700000 -1.843061 -1.809011
36.750000 -1.800355 -1.809041
36.800000 -1.758152 -1.809070
36.850000 -1.717531 -1.809099
36.900000 -1.679520 -1.809127
36.950000 -1.645077 -1.809155
37.000000 -1.615059 -1.809183
37.050000 -1.590208 -1.809210
37.100000 -1.571125 -1.809237
37.150000 -1.558261 -1.809263
37.200000 -1.551906 -1.809289
37.250000 -1.552180 -1.809315
37.300000 -1.559033 -1.809340
37.350000 -1.572246 -1.809365
37.400000 -1.591441 -1.809390
37.450000 -1.616087 -1.809414
37.500000 -1.645518 -1.809438
37.550000 -1.678950 -1.809461
37.600000 -1.715502 -1.809485
37.650000 -1.754218 -1.809507
37.700000 -1.794094 -1.809530
37.750000 -1.834101 -1.809552
37.800000 -1.873217 -1.809574
37.850000 -1.910446 -1.809596
37.900000 -1.944848 -1.809617
37.950000 -1.975563 -1.809638
38.000000 -2.001828 -1.809658
38.050000 -2.023002 -1.809679
38.100000 -2.038577 -1.809699
38.150000 -2.048191 -1.809719
38.200000 -2.051638 -1.809738
38.250000 -2.048872 -1.809757
38.300000 -2.040004 -1.809776
38.350000 -2.025302 -1.809795
38.400000 -2.005182 -1.809813
38.450000 -1.980194 -1.809831
38.500000 -1.951010 -1.809849
38.550000 -1.918406 -1.809867
38.600000 -1.883238 -1.809884
38.650000 -1.846425 -1.809901
38.700000 -1.808920 -1.809918
38.750000 -1.771687 -1.809934
38.800000 -1.735679 -1.809951
38.850000 -1.701808 -1.809967
38.900000 -1.670929 -1.809983
38.950000 -1.643811 -1.809998
39.000000 -1.621126 -1.810014
39.050000 -1.603424 -1.810029
39.100000 -1.591127 -1.810044
39.150000 -1.584513 -1.810059
39.200000 -1.583714 -1.810073
39.250000 -1.588715 -1.810088
39.300000 -1.599347 -1.810102
39.350000 -1.615304 -1.810116
39.400000 -1.636141 -1.810130
39.450000 -1.661293 -1.810143
39.500000 -1.690089 -1.810156
39.550000 -1.721768 -1.810170
39.600000 -1.755500 -1.810183
39.650000 -1.790410 -1.810195
39.700000 -1.825596 -1.810208
39.750000 -1.860156 -1.810220
39.800000 -1.893210 -1.810233
39.850000 -1.923923 -1.810245
39.900000 -1.951523 -1.810256
39.950000 -1.975327 -1.810268
40.000000 -1.994749 -1.810280
40.050000 -2.009321 -1.810291
40.100000 -2.018704 -1.810302
40.150000 -2.022692 -1.810313
40.200000 -2.021217 -1.810324
40.250000 -2.014355 -1.810335
40.300000 -2.002317 -1.810346
40.350000 -1.985444 -1.810356
40.400000 -1.964202 -1.810366
40.450000 -1.939163 -1.810376
40.500000 -1.910992 -1.810386
40.550000 -1.880433 -1.810396
40.600000 -1.848282 -1.810406
40.650000 -1.815373 -1.810415
40.700000 -1.782555 -1.810425
40.750000 -1.750666 -1.810434
40.800000 -1.720517 -1.810443
40.850000 -1.692868 -1.810452
40.900000 -1.668410 -1.810461
40.950000 -1.647749 -1.810470
41.000000 -1.631389 -1.810479
41.050000 -1.619720 -1.810487
41.100000 -1.613010 -1.810496
41.150000 -1.611398 -1.810504
41.200000 -1.614892 -1.810512
41.250000 -1.623370 -1.810520
41.300000 -1.636582 -1.810528
41.350000 -1.654159 -1.810536
41.400000 -1.675621 -1.810543
41.450000 -1.700395 -1.810551
41.500000 -1.727825 -1.810558
41.550000 -1.757192 -1.810566
41.600000 -1.787731 -1.810573
41.650000 -1.818653 -1.810580
41.700000 -1.849165 -1.810587
41.750000 -1.878489 -1.810594
41.800000 -1.905881 -1.810601
41.850000 -1.930654 -1.810608
41.900000 -1.952192 -1.810615
41.950000 -1.969964 -1.810621
42.000000 -1.983541 -1.810628
42.050000 -1.992604 -1.810634
42.100000 -1.996949 -1.810640
42.150000 -1.996497 -1.810646
42.200000 -1.991292 -1.810652
42.250000 -1.981498 -1.810658
42.300000 -1.967396 -1.810664
42.350000 -1.949376 -1.810670
42.400000 -1.927925 -1.810676
42.450000 -1.903614 -1.810682
42.500000 -1.877085 -1.810687
42.550000 -1.849032 -1.810693
42.600000 -1.820182 -1.810698
42.650000 -1.791280 -1.810704
42.700000 -1.763065 -1.810709
42.750000 -1.736255 -1.810714
42.800000 -1.711528 -1.810719
42.850000 -1.689502 -1.810724
42.900000 -1.670724 -1.810729
42.950000 -1.655652 -1.810734
43.000000 -1.644649 -1.810739
43.050000 -1.637969 -1.810744
43.100000 -1.635755 -1.810748
43.150000 -1.638034 -1.810753
43.200000 -1.644718 -1.810758
43.250000 -1.655608 -1.810762
43.300000 -1.670397 -1.810767
43.350000 -1.688681 -1.810771
43.400000 -1.709968 -1.810775
43.450000 -1.733696 -1.810780
43.500000 -1.759240 -1.810784
43.550000 -1.785934 -1.810788
43.600000 -1.813089 -1.810792
43.650000 -1.840006 -1.810796
43.700000 -1.865998 -1.810800
43.750000 -1.890406 -1.810804
43.800000 -1.912616 -1.810808
43.850000 -1.932073 -1.810811
43.900000 -1.948300 -1.810815
43.950000 -1.960900 -1.810819
44.000000 -1.969576 -1.810822
44.050000 -1.974133 -1.810826
44.100000 -1.974479 -1.810829
44.150000 -1.970635 -1.810833
44.200000 -1.962727 -1.810836
44.250000 -1.950983 -1.810840
44.300000 -1.935730 -1.810843
44.350000 -1.917382 -1.810846
44.400000 -1.896427 -1.810850
44.450000 -1.873421 -1.810853
44.500000 -1.848965 -1.810856
44.550000 -1.823694 -1.810859
44.600000 -1.798262 -1.810862
44.650000 -1.773320 -1.810865
44.700000 -1.749503 -1.810868
44.750000 -1.727413 -1.810871
44.800000 -1.707605 -1.810874
44.850000 -1.690571 -1.810877
44.900000 -1.676727 -1.810879
44.950000 -1.666408 -1.810882
45.000000 -1.659855 -1.810885
45.050000 -1.657210 -1.810888
45.100000 -1.658516 -1.810890
45.150000 -1.663713 -1.810893
45.200000 -1.672642 -1.810895
45.250000 -1.685050 -1.810898
45.300000 -1.700598 -1.810900
45.350000 -1.718866 -1.810903
45.400000 -1.739369 -1.810905
45.450000 -1.761568 -1.810908
45.500000 -1.784883 -1.810910
45.550000 -1.808711 -1.810912
45.600000 -1.832438 -1.810915
45.650000 -1.855458 -1.810917
45.700000 -1.877186 -1.810919
45.750000 -1.897075 -1.810921
45.800000 -1.914628 -1.810923
45.850000 -1.929411 -1.810926
45.900000 -1.941064 -1.810928
45.950000 -1.949310 -1.810930
46.000000 -1.953960 -1.810932
46.050000 -1.954919 -1.810934
46.100000 -1.952186 -1.810936
46.150000 -1.945856 -1.810938
46.200000 -1.936116 -1.810940
46.250000 -1.923235 -1.810941
46.300000 -1.907566 -1.810943
46.350000 -1.889527 -1.810945
46.400000 -1.869596 -1.810947
46.450000 -1.848295 -1.810949
46.500000 -1.826179 -1.810950
46.550000 -1.803818 -1.810952
46.600000 -1.781788 -1.810954
46.650000 -1.760649 -1.810956
46.700000 -1.740937 -1.810957
46.750000 -1.723147 -1.810959
46.800000 -1.707722 -1.810961
46.850000 -1.695040 -1.810962
46.900000 -1.685409 -1.810964
46.950000 -1.679054 -1.810965
47.000000 -1.676118 -1.810967
47.050000 -1.676652 -1.810968
47.100000 -1.680620 -1.810970
47.150000 -1.687897 -1.810971
47.200000 -1.698277 -1.810973
47.250000 -1.711472 -1.810974
47.300000 -1.727127 -1.810975
47.350000 -1.744825 -1.810977
47.400000 -1.764099 -1.810978
47.450000 -1.784446 -1.810980
47.500000 -1.805338 -1.810981
47.550000 -1.826236 -1.810982
47.600000 -1.846607 -1.810983
47.650000 -1.865931 -1.810985
47.700000 -1.883722 -1.810986
47.750000 -1.899534 -1.810987
47.800000 -1.912975 -1.810988
47.850000 -1.923718 -1.810990
47.900000 -1.931505 -1.810991
47.950000 -1.936157 -1.810992
48.000000 -1.937574 -1.810993
48.050000 -1.935743 -1.810994
48.100000 -1.930730 -1.810995
48.150000 -1.922687 -1.810996
48.200000 -1.911838 -1.810997
48.250000 -1.898480 -1.810999
48.300000 -1.882970 -1.811000
48.350000 -1.865721 -1.811001
48.400000 -1.847186 -1.811002
48.450000 -1.827846 -1.811003
48.500000 -1.808203 -1.811004
48.550000 -1.788761 -1.811005
48.600000 -1.770016 -1.811006
48.650000 -1.752444 -1.811006
48.700000 -1.736486 -1.811007
48.750000 -1.722541 -1.811008
48.800000 -1.710952 -1.811009
48.850000 -1.702000 -1.811010
48.900000 -1.695897 -1.811011
48.950000 -1.692780 -1.811012
49.000000 -1.692710 -1.811013
49.050000 -1.695667 -1.811014
49.100000 -1.701558 -1.811014
49.150000 -1.710211 -1.811015
49.200000 -1.721386 -1.811016
49.250000 -1.734782 -1.811017
49.300000 -1.750041 -1.811018
49.350000 -1.766760 -1.811018
49.400000 -1.784501 -1.811019
49.450000 -1.802804 -1.811020
49.500000 -1.821196 -1.811021
49.550000 -1.839207 -1.811021
49.600000 -1.856378 -1.811022
49.650000 -1.872275 -1.811023
49.700000 -1.886500 -1.811024
49.750000 -1.898699 -1.811024
49.800000 -1.908574 -1.811025
49.850000 -1.915887 -1.811026
49.900000 -1.920468 -1.811026
49.950000 -1.922218 -1.811027
50.000000 -1.921111 -1.811027
50.050000 -1.917194 -1.811028
50.100000 -1.910586 -1.811029
50.150000 -1.901473 -1.811029
50.200000 -1.890105 -1.811030
50.250000 -1.876789 -1.811031
50.300000 -1.861877 -1.811031
50.350000 -1.845763 -1.811032
50.400000 -1.828866 -1.811032
50.450000 -1.811623 -1.811033
50.500000 -1.794479 -1.811033
50.550000 -1.777872 -1.811034
50.600000 -1.762223 -1.811035
50.650000 -1.747927 -1.811035
50.700000 -1.735339 -1.811036
50.750000 -1.724772 -1.811036
50.800000 -1.716483 -1.811037
50.850000 -1.710668 -1.811037
50.900000 -1.707459 -1.811038
50.950000 -1.706923 -1.811038
51.000000 -1.709055 -1.811039
51.050000 -1.713784 -1.811039
51.100000 -1.720970 -1.811040
51.150000 -1.730413 -1.811040
51.200000 -1.741858 -1.811040
51.250000 -1.754998 -1.811041
51.300000 -1.769486 -1.811041
51.350000 -1.784942 -1.811042
51.400000 -1.800964 -1.811042
51.450000 -1.817138 -1.811043
51.500000 -1.833050 -1.811043
51.550000 -1.848294 -1.811043
51.600000 -1.862483 -1.811044
51.650000 -1.875263 -1.811044
51.700000 -1.886315 -1.811045
51.750000 -1.895368 -1.811045
51.800000 -1.902203 -1.811045
51.850000 -1.906660 -1.811046
51.900000 -1.908640 -1.811046
51.950000 -1.908110 -1.811047
52.000000 -1.905099 -1.811047
52.050000 -1.899701 -1.811047
52.100000 -1.892070 -1.811048
52.150000 -1.882415 -1.811048
52.200000 -1.870998 -1.811048
52.250000 -1.858121 -1.811049
52.300000 -1.844124 -1.811049
52.350000 -1.829374 -1.811049
52.400000 -1.814251 -1.811050
52.450000 -1.799146 -1.811050
52.500000 -1.784446 -1.811050
52.550000 -1.770523 -1.811051
52.600000 -1.757729 -1.811051
52.650000 -1.746384 -1.811051
52.700000 -1.736769 -1.811051
52.750000 -1.729118 -1.811052
52.800000 -1.723615 -1.811052
52.850000 -1.720386 -1.811052
52.900000 -1.719498 -1.811053
52.950000 -1.720960 -1.811053
53.000000 -1.724717 -1.811053
53.050000 -1.730660 -1.811053
53.100000 -1.738620 -1.811054
53.150000 -1.748382 -1.811054
53.200000 -1.759684 -1.811054
53.250000 -1.772226 -1.811054
53.300000 -1.785679 -1.811055
53.350000 -1.799692 -1.811055
53.400000 -1.813905 -1.811055
53.450000 -1.827950 -1.811055
53.500000 -1.841471 -1.811056
53.550000 -1.854124 -1.811056
53.600000 -1.865591 -1.811056
53.650000 -1.875587 -1.811056
53.700000 -1.883866 -1.811057
53.750000 -1.890227 -1.811057
53.800000 -1.894520 -1.811057
53.850000 -1.896648 -1.811057
53.900000 -1.896572 -1.811057
53.950000 -1.894307 -1.811058
54.000000 -1.889927 -1.811058
54.050000 -1.883558 -1.811058
54.100000 -1.875375 -1.811058
54.150000 -1.865599 -1.811058
54.200000 -1.854493 -1.811059
54.250000 -1.842348 -1.811059
54.300000 -1.829482 -1.811059
54.350000 -1.816229 -1.811059
54.400000 -1.802932 -1.811059
54.450000 -1.789930 -1.811059
54.500000 -1.777554 -1.811060
54.550000 -1.766118 -1.811060
54.600000 -1.755907 -1.811060
54.650000 -1.747175 -1.811060
54.700000 -1.740136 -1.811060
54.750000 -1.734958 -1.811060
54.800000 -1.731762 -1.811061
54.850000 -1.730616 -1.811061
54.900000 -1.731537 -1.811061
54.950000 -1.734487 -1.811061
55.000000 -1.739378 -1.811061
55.050000 -1.746070 -1.811061
55.100000 -1.754382 -1.811062
55.150000 -1.764090 -1.811062
55.200000 -1.774936 -1.811062
55.250000 -1.786635 -1.811062
55.300000 -1.798882 -1.811062
55.350000 -1.811360 -1.811062
55.400000 -1.823748 -1.811062
55.450000 -1.835730 -1.811063
55.500000 -1.847001 -1.811063
55.550000 -1.857279 -1.811063
55.600000 -1.866306 -1.811063
55.650000 -1.873860 -1.811063
55.700000 -1.879756 -1.811063
55.750000 -1.883856 -1.811063
55.800000 -1.886066 -1.811063
55.850000 -1.886342 -1.811064
55.900000 -1.884689 -1.811064
55.950000 -1.881163 -1.811064
56.000000 -1.875866 -1.811064
56.050000 -1.868946 -1.811064
56.100000 -1.860589 -1.811064
56.150000 -1.851021 -1.811064
56.200000 -1.840493 -1.811064
56.250000 -1.829281 -1.811064
56.300000 -1.817676 -1.811065
56.350000 -1.805979 -1.811065
56.400000 -1.794490 -1.811065
56.450000 -1.783500 -1.811065
56.500000 -1.773288 -1.811065
56.550000 -1.764110 -1.811065
56.600000 -1.756194 -1.811065
56.650000 -1.749735 -1.811065
56.700000 -1.744888 -1.811065
56.750000 -1.741767 -1.811065
56.800000 -1.740440 -1.811066
56.850000 -1.740929 -1.811066
56.900000 -1.743210 -1.811066
56.950000 -1.747212 -1.811066
57.000000 -1.752822 -1.811066
57.050000 -1.759886 -1.811066
57.100000 -1.768213 -1.811066
57.150000 -1.777582 -1.811066
57.200000 -1.787747 -1.811066
57.250000 -1.798441 -1.811066
57.300000 -1.809387 -1.811066
57.350000 -1.820305 -1.811066
57.400000 -1.830914 -1.811067
57.450000 -1.840945 -1.811067
57.500000 -1.850146 -1.811067
57.550000 -1.858286 -1.811067
57.600000 -1.865163 -1.811067
57.650000 -1.870611 -1.811067
57.700000 -1.874499 -1.811067
57.750000 -1.876738 -1.811067
57.800000 -1.877281 -1.811067
57.850000 -1.876126 -1.811067
57.900000 -1.873314 -1.811067
57.950000 -1.868928 -1.811067
58.000000 -1.863089 -1.811067
58.050000 -1.855957 -1.811067
58.100000 -1.847724 -1.811067
58.150000 -1.838607 -1.811068
58.200000 -1.828845 -1.811068
58.250000 -1.818692 -1.811068
58.300000 -1.808411 -1.811068
58.350000 -1.798266 -1.811068
58.400000 -1.788515 -1.811068
58.450000 -1.779406 -1.811068
58.500000 -1.771167 -1.811068
58.550000 -1.764004 -1.811068
58.600000 -1.758092 -1.811068
58.650000 -1.753576 -1.811068
58.700000 -1.750560 -1.811068
58.750000 -1.749113 -1.811068
58.800000 -1.749260 -1.811068
58.850000 -1.750989 -1.811068
58.900000 -1.754244 -1.811068
58.950000 -1.758932 -1.811068
59.000000 -1.764923 -1.811068
59.050000 -1.772056 -1.811069
59.100000 -1.780140 -1.811069
59.150000 -1.788963 -1.811069
59.200000 -1.798293 -1.811069
59.250000 -1.807888 -1.811069
59.300000 -1.817502 -1.811069
59.350000 -1.826888 -1.811069
59.400000 -1.835807 -1.811069
59.450000 -1.844034 -1.811069
59.500000 -1.851363 -1.811069
59.550000 -1.857613 -1.811069
59.600000 -1.862630 -1.811069
59.650000 -1.866295 -1.811069
59.700000 -1.868522 -1.811069
59.750000 -1.869264 -1.811069
59.800000 -1.868511 -1.811069
59.850000 -1.866294 -1.811069
59.900000 -1.862678 -1.811069
59.950000 -1.857765 -1.811069
60.000000 -1.851689 -1.811069
60.050000 -1.844614 -1.811069
60.100000 -1.836726 -1.811069
60.150000 -1.828234 -1.811069
60.200000 -1.819359 -1.811069
60.250000 -1.810330 -1.811069
60.300000 -1.801380 -1.811070
60.350000 -1.792736 -1.811070
60.400000 -1.784619 -1.811070
60.450000 -1.777232 -1.811070
60.500000 -1.770760 -1.811070
60.550000 -1.765362 -1.811070
60.600000 -1.761170 -1.811070
60.650000 -1.758282 -1.811070
60.700000 -1.756764 -1.811070
60.750000 -1.756646 -1.811070
60.800000 -1.757922 -1.811070
60.850000 -1.760549 -1.811070
60.900000 -1.764452 -1.811070
60.950000 -1.769523 -1.811070
61.000000 -1.775623 -1.811070
61.050000 -1.782591 -1.811070
61.100000 -1.790241 -1.811070
61.150000 -1.798374 -1.811070
61.200000 -1.806778 -1.811070
61.250000 -1.815237 -1.811070
61.300000 -1.823533 -1.811070
61.350000 -1.831456 -1.811070
61.400000 -1.838805 -1.811070
61.450000 -1.845395 -1.811070
61.500000 -1.851064 -1.811070
61.550000 -1.855672 -1.811070
61.600000 -1.859108 -1.811070
61.650000 -1.861291 -1.811070
61.700000 -1.862175 -1.811070
61.750000 -1.861746 -1.811070
61.800000 -1.860022 -1.811070
61.850000 -1.857057 -1.811070
61.900000 -1.852934 -1.811070
61.950000 -1.847767 -1.811070
62.000000 -1.841695 -1.811070
62.050000 -1.834879 -1.811070
62.100000 -1.827499 -1.811070
62.150000 -1.819747 -1.811070
62.200000 -1.811824 -1.811070
62.250000 -1.803934 -1.811070
62.300000 -1.796279 -1.811071
62.350000 -1.789052 -1.811071
62.400000 -1.782437 -1.811071
62.450000 -1.776598 -1.811071
62.500000 -1.771680 -1.811071
62.550000 -1.767803 -1.811071
62.600000 -1.765058 -1.811071
62.650000 -1.763509 -1.811071
62.700000 -1.763187 -1.811071
62.750000 -1.764093 -1.811071
62.800000 -1.766196 -1.811071
62.850000 -1.769433 -1.811071
62.900000 -1.773714 -1.811071
62.950000 -1.778923 -1.811071
63.000000 -1.784921 -1.811071
63.050000 -1.791548 -1.811071
63.100000 -1.798631 -1.811071
63.150000 -1.805986 -1.811071
63.200000 -1.813423 -1.811071
63.250000 -1.820750 -1.811071
63.300000 -1.827782 -1.811071
63.350000 -1.834339 -1.811071
63.400000 -1.840258 -1.811071
63.450000 -1.845390 -1.811071
63.500000 -1.849611 -1.811071
63.550000 -1.852817 -1.811071
63.600000 -1.854934 -1.811071
63.650000 -1.855914 -1.811071
63.700000 -1.855740 -1.811071
63.750000 -1.854424 -1.811071
63.800000 -1.852008 -1.811071
63.850000 -1.848559 -1.811071
63.900000 -1.844174 -1.811071
63.950000 -1.838970 -1.811071
64.000000 -1.833087 -1.811071
64.050000 -1.826679 -1.811071
64.100000 -1.819914 -1.811071
64.150000 -1.812967 -1.811071
64.200000 -1.806017 -1.811071
64.250000 -1.799243 -1.811071
64.300000 -1.792816 -1.811071
64.350000 -1.786898 -1.811071
64.400000 -1.781638 -1.811071
64.450000 -1.777166 -1.811071
64.500000 -1.773591 -1.811071
64.550000 -1.770999 -1.811071
64.600000 -1.769450 -1.811071
64.650000 -1.768976 -1.811071
64.700000 -1.769583 -1.811071
64.750000 -1.771247 -1.811071
64.800000 -1.773920 -1.811071
64.850000 -1.777525 -1.811071
64.900000 -1.781966 -1.811071
64.950000 -1.787122 -1.811071
65.000000 -1.792857 -1.811071
65.050000 -1.799021 -1.811071
65.100000 -1.805452 -1.811071
65.150000 -1.811985 -1.811071
65.200000 -1.818451 -1.811071
65.250000 -1.824686 -1.811071
65.300000 -1.830531 -1.811071
65.350000 -1.835840 -1.811071
65.400000 -1.840480 -1.811071
65.450000 -1.844336 -1.811071
65.500000 -1.847316 -1.811071
65.550000 -1.849349 -1.811071
65.600000 -1.850388 -1.811071
65.650000 -1.850415 -1.811071
65.700000 -1.849434 -1.811071
65.750000 -1.847478 -1.811071
65.800000 -1.844603 -1.811071
65.850000 -1.840889 -1.811071
65.900000 -1.836437 -1.811071
65.950000 -1.831364 -1.811071
66.000000 -1.825806 -1.811071
66.050000 -1.819907 -1.811071
66.100000 -1.813821 -1.811071
66.150000 -1.807704 -1.811071
66.200000 -1.801714 -1.811071
66.250000 -1.796003 -1.811071
66.300000 -1.790716 -1.811071
66.350000 -1.785984 -1.811071
66.400000 -1.781925 -1.811071
66.450000 -1.778639 -1.811071
66.500000 -1.776205 -1.811071
66.550000 -1.774679 -1.811071
66.600000 -1.774095 -1.811071
66.650000 -1.774460 -1.811071
66.700000 -1.775761 -1.811071
66.750000 -1.777956 -1.811071
66.800000 -1.780985 -1.811071
66.850000 -1.784763 -1.811071
66.900000 -1.789190 -1.811071
66.950000 -1.794148 -1.811071
67.000000 -1.799506 -1.811071
67.050000 -1.805125 -1.811071
67.100000 -1.810859 -1.811071
67.150000 -1.816561 -1.811071
67.200000 -1.822085 -1.811071
67.250000 -1.827290 -1.811072
67.300000 -1.832046 -1.811072
67.350000 -1.836234 -1.811072
67.400000 -1.839750 -1.811072
67.450000 -1.842509 -1.811072
67.500000 -1.844446 -1.811072
67.550000 -1.845515 -1.811072
67.600000 -1.845696 -1.811072
67.650000 -1.844989 -1.811072
67.700000 -1.843420 -1.811072
67.750000 -1.841032 -1.811072
67.800000 -1.837894 -1.811072
67.850000 -1.834090 -1.811072
67.900000 -1.829721 -1.811072
67.950000 -1.824905 -1.811072
68.000000 -1.819766 -1.811072
68.050000 -1.814438 -1.811072
68.100000 -1.809059 -1.811072
68.150000 -1.803767 -1.811072
68.200000 -1.798697 -1.811072
68.250000 -1.793978 -1.811072
68.300000 -1.789726 -1.811072
68.350000 -1.786049 -1.811072
68.400000 -1.783037 -1.811072
68.450000 -1.780762 -1.811072
68.500000 -1.779278 -1.811072
68.550000 -1.778617 -1.811072
68.600000 -1.778791 -1.811072
68.650000 -1.779790 -1.811072
68.700000 -1.781583 -1.811072
68.750000 -1.784119 -1.811072
68.800000 -1.787329 -1.811072
68.850000 -1.791124 -1.811072
68.900000 -1.795405 -1.811072
68.950000 -1.800059 -1.811072
69.000000 -1.804964 -1.811072
69.050000 -1.809993 -1.811072
69.100000 -1.815017 -1.811072
69.150000 -1.819906 -1.811072
69.200000 -1.824537 -1.811072
69.250000 -1.828793 -1.811072
69.300000 -1.832567 -1.811072
69.350000 -1.835767 -1.811072
69.400000 -1.838313 -1.811072
69.450000 -1.840145 -1.811072
69.500000 -1.841221 -1.811072
69.550000 -1.841519 -1.811072
69.600000 -1.841035 -1.811072
69.650000 -1.839787 -1.811072
69.700000 -1.837813 -1.811072
69.750000 -1.835168 -1.811072
69.800000 -1.831923 -1.811072
69.850000 -1.828166 -1.811072
69.900000 -1.823996 -1.811072
69.950000 -1.819523 -1.811072
70.000000 -1.814863 -1.811072
70.050000 -1.810137 -1.811072
70.100000 -1.805466 -1.811072
70.150000 -1.800969 -1.811072
70.200000 -1.796760 -1.811072
70.250000 -1.792946 -1.811072
70.300000 -1.789620 -1.811072
70.350000 -1.786865 -1.811072
70.400000 -1.784748 -1.811072
70.450000 -1.783319 -1.811072
70.500000 -1.782609 -1.811072
70.550000 -1.782633 -1.811072
70.600000 -1.783384 -1.811072
70.650000 -1.784838 -1.811072
70.700000 -1.786955 -1.811072
70.750000 -1.789675 -1.811072
70.800000 -1.792924 -1.811072
70.850000 -1.796617 -1.811072
70.900000 -1.800655 -1.811072
70.950000 -1.804933 -1.811072
71.000000 -1.809340 -1.811072
71.050000 -1.813763 -1.811072
71.100000 -1.818087 -1.811072
71.150000 -1.822203 -1.811072
71.200000 -1.826007 -1.811072
71.250000 -1.829404 -1.811072
71.300000 -1.832310 -1.811072
71.350000 -1.834652 -1.811072
71.400000 -1.836376 -1.811072
71.450000 -1.837441 -1.811072
71.500000 -1.837824 -1.811072
71.550000 -1.837519 -1.811072
71.600000 -1.836540 -1.811072
71.650000 -1.834916 -1.811072
71.700000 -1.832692 -1.811072
71.750000 -1.829929 -1.811072
71.800000 -1.826702 -1.811072
71.850000 -1.823096 -1.811072
71.900000 -1.819206 -1.811072
71.950000 -1.815134 -1.811072
72.000000 -1.810984 -1.811072
72.050000 -1.806864 -1.811072
72.100000 -1.802879 -1.811072
72.150000 -1.799130 -1.811072
72.200000 -1.795711 -1.811072
72.250000 -1.792708 -1.811072
72.300000 -1.790195 -1.811072
72.350000 -1.788232 -1.811072
72.400000 -1.786867 -1.811072
72.450000 -1.786131 -1.811072
72.500000 -1.786037 -1.811072
72.550000 -1.786585 -1.811072
72.600000 -1.787756 -1.811072
72.650000 -1.789516 -1.811072
72.700000 -1.791816 -1.811072
72.750000 -1.794594 -1.811072
72.800000 -1.797775 -1.811072
72.850000 -1.801275 -1.811072
72.900000 -1.805003 -1.811072
72.950000 -1.808862 -1.811072
73.000000 -1.812752 -1.811072
73.050000 -1.816574 -1.811072
73.100000 -1.820229 -1.811072
73.150000 -1.823626 -1.811072
73.200000 -1.826679 -1.811072
73.250000 -1.829313 -1.811072
73.300000 -1.831462 -1.811072
73.350000 -1.833075 -1.811072
73.400000 -1.834115 -1.811072
73.450000 -1.834558 -1.811072
73.500000 -1.834397 -1.811072
73.550000 -1.833640 -1.811072
73.600000 -1.832311 -1.811072
73.650000 -1.830447 -1.811072
73.700000 -1.828099 -1.811072
73.750000 -1.825331 -1.811072
73.800000 -1.822216 -1.811072
73.850000 -1.818836 -1.811072
73.900000 -1.815280 -1.811072
73.950000 -1.811640 -1.811072
74.000000 -1.808009 -1.811072
74.050000 -1.804481 -1.811072
74.100000 -1.801144 -1.811072
74.150000 -1.798084 -1.811072
74.200000 -1.795376 -1.811072
74.250000 -1.793088 -1.811072
74.300000 -1.791275 -1.811072
74.350000 -1.789980 -1.811072
74.400000 -1.789234 -1.811072
74.450000 -1.789052 -1.811072
74.500000 -1.789434 -1.811072
74.550000 -1.790368 -1.811072
74.600000 -1.791826 -1.811072
74.650000 -1.793766 -1.811072
74.700000 -1.796136 -1.811072
74.750000 -1.798874 -1.811072
74.800000 -1.801905 -1.811072
74.850000 -1.805151 -1.811072
74.900000 -1.808527 -1.811072
74.950000 -1.811946 -1.811072
75.000000 -1.815320 -1.811072
75.050000 -1.818563 -1.811072
75.100000 -1.821593 -1.811072
75.150000 -1.824334 -1.811072
75.200000 -1.826717 -1.811072
75.250000 -1.828684 -1.811072
75.300000 -1.830188 -1.811072
75.350000 -1.831192 -1.811072
75.400000 -1.831675 -1.811072
75.450000 -1.831627 -1.811072
75.500000 -1.831054 -1.811072
75.550000 -1.829972 -1.811072
75.600000 -1.828415 -1.811072
75.650000 -1.826424 -1.811072
75.700000 -1.824052 -1.811072
75.750000 -1.821365 -1.811072
75.800000 -1.818431 -1.811072
75.850000 -1.815329 -1.811072
75.900000 -1.812138 -1.811072
75.950000 -1.808941 -1.811072
76.000000 -1.805820 -1.811072
76.050000 -1.802853 -1.811072
76.100000 -1.800116 -1.811072
76.150000 -1.797678 -1.811072
76.200000 -1.795599 -1.811072
76.250000 -1.793929 -1.811072
76.300000 -1.792709 -1.811072
76.350000 -1.791967 -1.811072
76.400000 -1.791719 -1.811072
76.450000 -1.791968 -1.811072
76.500000 -1.792704 -1.811072
76.550000 -1.793905 -1.811072
76.600000 -1.795538 -1.811072
76.650000 -1.797558 -1.811072
76.700000 -1.799910 -1.811072
76.750000 -1.802532 -1.811072
76.800000 -1.805356 -1.811072
76.850000 -1.808307 -1.811072
76.900000 -1.811309 -1.811072
76.950000 -1.814286 -1.811072
77.000000 -1.817161 -1.811072
77.050000 -1.819861 -1.811072
77.100000 -1.822318 -1.811072
77.150000 -1.824471 -1.811072
77.200000 -1.826268 -1.811072
77.250000 -1.827663 -1.811072
77.300000 -1.828625 -1.811072
77.350000 -1.829131 -1.811072
77.400000 -1.829171 -1.811072
77.450000 -1.828748 -1.811072
77.500000 -1.827876 -1.811072
77.550000 -1.826579 -1.811072
77.600000 -1.824894 -1.811072
77.650000 -1.822866 -1.811072
77.700000 -1.820549 -1.811072
77.750000 -1.818006 -1.811072
77.800000 -1.815301 -1.811072
77.850000 -1.812507 -1.811072
77.900000 -1.809694 -1.811072
77.950000 -1.806935 -1.811072
78.000000 -1.804299 -1.811072
78.050000 -1.801855 -1.811072
78.100000 -1.799662 -1.811072
78.150000 -1.797776 -1.811072
78.200000 -1.796243 -1.811072
78.250000 -1.795099 -1.811072
78.300000 -1.794372 -1.811072
78.350000 -1.794077 -1.811072
78.400000 -1.794219 -1.811072
78.450000 -1.794791 -1.811072
78.500000 -1.795776 -1.811072
78.550000 -1.797146 -1.811072
78.600000 -1.798863 -1.811072
78.650000 -1.800882 -1.811072
78.700000 -1.803148 -1.811072
78.750000 -1.805601 -1.811072
78.800000 -1.808179 -1.811072
78.850000 -1.810814 -1.811072
78.900000 -1.813438 -1.811072
78.950000 -1.815984 -1.811072
79.000000 -1.818388 -1.811072
79.050000 -1.820588 -1.811072
79.100000 -1.822531 -1.811072
79.150000 -1.824167 -1.811072
79.200000 -1.825458 -1.811072
79.250000 -1.826372 -1.811072
79.300000 -1.826888 -1.811072
79.350000 -1.826996 -1.811072
79.400000 -1.826696 -1.811072
79.450000 -1.825998 -1.811072
79.500000 -1.824922 -1.811072
79.550000 -1.823499 -1.811072
79.600000 -1.821768 -1.811072
79.650000 -1.819774 -1.811072
79.700000 -1.817570 -1.811072
79.750000 -1.815215 -1.811072
79.800000 -1.812769 -1.811072
79.850000 -1.810296 -1.811072
79.900000 -1.807859 -1.811072
79.950000 -1.805521 -1.811072
80.000000 -1.803340 -1.811072
80.050000 -1.801371 -1.811072
80.100000 -1.799663 -1.811072
80.150000 -1.798259 -1.811072
80.200000 -1.797191 -1.811072
80.250000 -1.796486 -1.811072
80.300000 -1.796159 -1.811072
80.350000 -1.796216 -1.811072
80.400000 -1.796653 -1.811072
80.450000 -1.797456 -1.811072
80.500000 -1.798601 -1.811072
80.550000 -1.800059 -1.811072
80.600000 -1.801789 -1.811072
80.650000 -1.803745 -1.811072
80.700000 -1.805875 -1.811072
80.750000 -1.808125 -1.811072
80.800000 -1.810435 -1.811072
80.850000 -1.812746 -1.811072
80.900000 -1.814999 -1.811072
80.950000 -1.817137 -1.811072
81.000000 -1.819106 -1.811072
81.050000 -1.820855 -1.811072
81.100000 -1.822343 -1.811072
81.150000 -1.823533 -1.811072
81.200000 -1.824396 -1.811072
81.250000 -1.824912 -1.811072
81.300000 -1.825071 -1.811072
81.350000 -1.824870 -1.811072
81.400000 -1.824317 -1.811072
81.450000 -1.823430 -1.811072
81.500000 -1.822231 -1.811072
81.550000 -1.820755 -1.811072
81.600000 -1.819041 -1.811072
81.650000 -1.817134 -1.811072
81.700000 -1.815085 -1.811072
81.750000 -1.812946 -1.811072
81.800000 -1.810774 -1.811072
81.850000 -1.808623 -1.811072
81.900000 -1.806550 -1.811072
81.950000 -1.804606 -1.811072
82.000000 -1.802840 -1.811072
82.050000 -1.801296 -1.811072
82.100000 -1.800013 -1.811072
82.150000 -1.799021 -1.811072
82.200000 -1.798344 -1.811072
82.250000 -1.797997 -1.811072
82.300000 -1.797988 -1.811072
82.350000 -1.798313 -1.811072
82.400000 -1.798962 -1.811072
82.450000 -1.799918 -1.811072
82.500000 -1.801152 -1.811072
82.550000 -1.802632 -1.811072
82.600000 -1.804319 -1.811072
82.650000 -1.806167 -1.811072
82.700000 -1.808128 -1.811072
82.750000 -1.810152 -1.811072
82.800000 -1.812186 -1.811072
82.850000 -1.814178 -1.811072
82.900000 -1.816078 -1.811072
82.950000 -1.817837 -1.811072
83.000000 -1.819411 -1.811072
83.050000 -1.820761 -1.811072
83.100000 -1.821855 -1.811072
83.150000 -1.822665 -1.811072
83.200000 -1.823173 -1.811072
83.250000 -1.823368 -1.811072
83.300000 -1.823248 -1.811072
83.350000 -1.822816 -1.811072
83.400000 -1.822087 -1.811072
83.450000 -1.821080 -1.811072
83.500000 -1.819824 -1.811072
83.550000 -1.818353 -1.811072
83.600000 -1.816704 -1.811072
83.650000 -1.814923 -1.811072
83.700000 -1.813054 -1.811072
83.750000 -1.811148 -1.811072
83.800000 -1.809251 -1.811072
83.850000 -1.807414 -1.811072
83.900000 -1.805683 -1.811072
83.950000 -1.804101 -1.811072
84.000000 -1.802708 -1.811072
84.050000 -1.801538 -1.811072
84.100000 -1.800619 -1.811072
84.150000 -1.799975 -1.811072
84.200000 -1.799618 -1.811072
84.250000 -1.799557 -1.811072
84.300000 -1.799791 -1.811072
84.350000 -1.800313 -1.811072
84.400000 -1.801106 -1.811072
84.450000 -1.802149 -1.811072
84.500000 -1.803413 -1.811072
84.550000 -1.804866 -1.811072
84.600000 -1.806467 -1.811072
84.650000 -1.808176 -1.811072
84.700000 -1.809947 -1.811072
84.750000 -1.811736 -1.811072
84.800000 -1.813496 -1.811072
84.850000 -1.815182 -1.811072
84.900000 -1.816752 -1.811072
84.950000 -1.818167 -1.811072
85.000000 -1.819390 -1.811072
85.050000 -1.820392 -1.811072
85.100000 -1.821150 -1.811072
85.150000 -1.821644 -1.811072
85.200000 -1.821864 -1.811072
85.250000 -1.821807 -1.811072
85.300000 -1.821476 -1.811072
85.350000 -1.820880 -1.811072
85.400000 -1.820037 -1.811072
85.450000 -1.818971 -1.811072
85.500000 -1.817709 -1.811072
85.550000 -1.816286 -1.811072
85.600000 -1.814738 -1.811072
85.650000 -1.813107 -1.811072
85.700000 -1.811435 -1.811072
85.750000 -1.809764 -1.811072
85.800000 -1.808138 -1.811072
85.850000 -1.806598 -1.811072
85.900000 -1.805182 -1.811072
85.950000 -1.803927 -1.811072
86.000000 -1.802862 -1.811072
86.050000 -1.802015 -1.811072
86.100000 -1.801405 -1.811072
86.150000 -1.801046 -1.811072
86.200000 -1.800947 -1.811072
86.250000 -1.801107 -1.811072
86.300000 -1.801521 -1.811072
86.350000 -1.802177 -1.811072
86.400000 -1.803056 -1.811072
86.450000 -1.804134 -1.811072
86.500000 -1.805383 -1.811072
86.550000 -1.806770 -1.811072
86.600000 -1.808257 -1.811072
86.650000 -1.809807 -1.811072
86.700000 -1.811378 -1.811072
86.750000 -1.812932 -1.811072
86.800000 -1.814427 -1.811072
86.850000 -1.815827 -1.811072
86.900000 -1.817096 -1.811072
86.950000 -1.818203 -1.811072
87.000000 -1.819119 -1.811072
87.050000 -1.819824 -1.811072
87.100000 -1.820300 -1.811072
87.150000 -1.820537 -1.811072
87.200000 -1.820530 -1.811072
87.250000 -1.820281 -1.811072
87.300000 -1.819797 -1.811072
87.350000 -1.819094 -1.811072
87.400000 -1.818190 -1.811072
87.450000 -1.817110 -1.811072
87.500000 -1.815882 -1.811072
87.550000 -1.814540 -1.811072
87.600000 -1.813117 -1.811072
87.650000 -1.811652 -1.811072
87.700000 -1.810181 -1.811072
87.750000 -1.808743 -1.811072
87.800000 -1.807374 -1.811072
87.850000 -1.806108 -1.811072
87.900000 -1.804978 -1.811072
87.950000 -1.804012 -1.811072
88.000000 -1.803232 -1.811072
88.050000 -1.802658 -1.811072
88.100000 -1.802303 -1.811072
88.150000 -1.802175 -1.811072
88.200000 -1.802276 -1.811072
88.250000 -1.802601 -1.811072
88.300000 -1.803141 -1.811072
88.350000 -1.803880 -1.811072
88.400000 -1.804798 -1.811072
88.450000 -1.805871 -1.811072
88.500000 -1.807070 -1.811072
88.550000 -1.808363 -1.811072
88.600000 -1.809717 -1.811072
88.650000 -1.811097 -1.811072
88.700000 -1.812467 -1.811072
88.750000 -1.813793 -1.811072
88.800000 -1.815040 -1.811072
88.850000 -1.816177 -1.811072
88.900000 -1.817176 -1.811072
88.950000 -1.818012 -1.811072
89.000000 -1.818666 -1.811072
89.050000 -1.819120 -1.811072
89.100000 -1.819366 -1.811072
89.150000 -1.819397 -1.811072
89.200000 -1.819216 -1.811072
89.250000 -1.818827 -1.811072
89.300000 -1.818242 -1.811072
89.350000 -1.817478 -1.811072
89.400000 -1.816554 -1.811072
89.450000 -1.815497 -1.811072
89.500000 -1.814333 -1.811072
89.550000 -1.813093 -1.811072
89.600000 -1.811810 -1.811072
89.650000 -1.810516 -1.811072
89.700000 -1.809246 -1.811072
89.750000 -1.808030 -1.811072
89.800000 -1.806900 -1.811072
89.850000 -1.805884 -1.811072
89.900000 -1.805008 -1.811072
89.950000 -1.804293 -1.811072
90.000000 -1.803756 -1.811072
90.050000 -1.803409 -1.811072
90.100000 -1.803261 -1.811072
90.150000 -1.803314 -1.811072
90.200000 -1.803566 -1.811072
90.250000 -1.804007 -1.811072
90.300000 -1.804627 -1.811072
90.350000 -1.805407 -1.811072
90.400000 -1.806327 -1.811072
90.450000 -1.807363 -1.811072
90.500000 -1.808487 -1.811072
90.550000 -1.809669 -1.811072
90.600000 -1.810879 -1.811072
90.650000 -1.812087 -1.811072
90.700000 -1.813260 -1.811072
90.750000 -1.814370 -1.811072
90.800000 -1.815388 -1.811072
90.850000 -1.816289 -1.811072
90.900000 -1.817051 -1.811072
90.950000 -1.817654 -1.811072
91.000000 -1.818085 -1.811072
91.050000 -1.818334 -1.811072
91.100000 -1.818395 -1.811072
91.150000 -1.818268 -1.811072
91.200000 -1.817958 -1.811072
91.250000 -1.817474 -1.811072
91.300000 -1.816829 -1.811072
91.350000 -1.816041 -1.811072
91.400000 -1.815131 -1.811072
91.450000 -1.814123 -1.811072
91.500000 -1.813044 -1.811072
91.550000 -1.811921 -1.811072
91.600000 -1.810784 -1.811072
91.650000 -1.809662 -1.811072
91.700000 -1.808583 -1.811072
91.750000 -1.807576 -1.811072
91.800000 -1.806664 -1.811072
91.850000 -1.805871 -1.811072
91.900000 -1.805216 -1.811072
91.950000 -1.804716 -1.811072
92.000000 -1.804381 -1.811072
92.050000 -1.804220 -1.811072
92.100000 -1.804236 -1.811072
92.150000 -1.804426 -1.811072
92.200000 -1.804785 -1.811072
92.250000 -1.805303 -1.811072
92.300000 -1.805965 -1.811072
92.350000 -1.806753 -1.811072
92.400000 -1.807646 -1.811072
92.450000 -1.808622 -1.811072
92.500000 -1.809653 -1.811072
92.550000 -1.810714 -1.811072
92.600000 -1.811777 -1.811072
92.650000 -1.812816 -1.811072
92.700000 -1.813802 -1.811072
92.750000 -1.814713 -1.811072
92.800000 -1.815524 -1.811072
92.850000 -1.816216 -1.811072
92.900000 -1.816771 -1.811072
92.950000 -1.817177 -1.811072
93.000000 -1.817425 -1.811072
93.050000 -1.817508 -1.811072
93.100000 -1.817425 -1.811072
93.150000 -1.817181 -1.811072
93.200000 -1.816782 -1.811072
93.250000 -1.816239 -1.811072
93.300000 -1.815568 -1.811072
93.350000 -1.814786 -1.811072
93.400000 -1.813914 -1.811072
93.450000 -1.812975 -1.811072
93.500000 -1.811994 -1.811072
93.550000 -1.810996 -1.811072
93.600000 -1.810006 -1.811072
93.650000 -1.809049 -1.811072
93.700000 -1.808151 -1.811072
93.750000 -1.807334 -1.811072
93.800000 -1.806618 -1.811072
93.850000 -1.806020 -1.811072
93.900000 -1.805555 -1.811072
93.950000 -1.805235 -1.811072
94.000000 -1.805067 -1.811072
94.050000 -1.805053 -1.811072
94.100000 -1.805193 -1.811072
94.150000 -1.805483 -1.811072
94.200000 -1.805914 -1.811072
94.250000 -1.806474 -1.811072
94.300000 -1.807148 -1.811072
94.350000 -1.807918 -1.811072
94.400000 -1.808764 -1.811072
94.450000 -1.809663 -1.811072
94.500000 -1.810592 -1.811072
94.550000 -1.811528 -1.811072
94.600000 -1.812445 -1.811072
94.650000 -1.813322 -1.811072
94.700000 -1.814135 -1.811072
94.750000 -1.814864 -1.811072
94.800000 -1.815492 -1.811072
94.850000 -1.816002 -1.811072
94.900000 -1.816383 -1.811072
94.950000 -1.816625 -1.811072
95.000000 -1.816723 -1.811072
95.050000 -1.816677 -1.811072
95.100000 -1.816487 -1.811072
95.150000 -1.816160 -1.811072
95.200000 -1.815704 -1.811072
95.250000 -1.815134 -1.811072
95.300000 -1.814463 -1.811072
95.350000 -1.813709 -1.811072
95.400000 -1.812893 -1.811072
95.450000 -1.812036 -1.811072
95.500000 -1.811160 -1.811072
95.550000 -1.810287 -1.811072
95.600000 -1.809441 -1.811072
95.650000 -1.808641 -1.811072
95.700000 -1.807909 -1.811072
95.750000 -1.807263 -1.811072
95.800000 -1.806718 -1.811072
95.850000 -1.806289 -1.811072
95.900000 -1.805985 -1.811072
95.950000 -1.805812 -1.811072
96.000000 -1.805776 -1.811072
96.050000 -1.805876 -1.811072
96.100000 -1.806107 -1.811072
96.150000 -1.806465 -1.811072
96.200000 -1.806938 -1.811072
96.250000 -1.807513 -1.811072
96.300000 -1.808176 -1.811072
96.350000 -1.808909 -1.811072
96.400000 -1.809692 -1.811072
96.450000 -1.810505 -1.811072
96.500000 -1.811327 -1.811072
96.550000 -1.812138 -1.811072
96.600000 -1.812916 -1.811072
96.650000 -1.813641 -1.811072
96.700000 -1.814296 -1.811072
96.750000 -1.814864 -1.811072
96.800000 -1.815332 -1.811072
96.850000 -1.815687 -1.811072
96.900000 -1.815922 -1.811072
96.950000 -1.816031 -1.811072
97.000000 -1.816012 -1.811072
97.050000 -1.815867 -1.811072
97.100000 -1.815601 -1.811072
97.150000 -1.815220 -1.811072
97.200000 -1.814736 -1.811072
97.250000 -1.814161 -1.811072
97.300000 -1.813510 -1.811072
97.350000 -1.812802 -1.811072
97.400000 -1.812054 -1.811072
97.450000 -1.811286 -1.811072
97.500000 -1.810517 -1.811072
97.550000 -1.809768 -1.811072
97.600000 -1.809057 -1.811072
97.650000 -1.808402 -1.811072
97.700000 -1.807820 -1.811072
97.750000 -1.807325 -1.811072
97.800000 -1.806929 -1.811072
97.850000 -1.806641 -1.811072
97.900000 -1.806470 -1.811072
97.950000 -1.806416 -1.811072
98.000000 -1.806483 -1.811072
98.050000 -1.806666 -1.811072
98.100000 -1.806961 -1.811072
98.150000 -1.807359 -1.811072
98.200000 -1.807850 -1.811072
98.250000 -1.808420 -1.811072
98.300000 -1.809054 -1.811072
98.350000 -1.809735 -1.811072
98.400000 -1.810446 -1.811072
98.450000 -1.811169 -1.811072
98.500000 -1.811884 -1.811072
98.550000 -1.812574 -1.811072
98.600000 -1.813220 -1.811072
98.650000 -1.813808 -1.811072
98.700000 -1.814322 -1.811072
98.750000 -1.814749 -1.811072
98.800000 -1.815079 -1.811072
98.850000 -1.815304 -1.811072
98.900000 -1.815420 -1.811072
98.950000 -1.815423 -1.811072
99.000000 -1.815315 -1.811072
99.050000 -1.815100 -1.811072
99.100000 -1.814782 -1.811072
99.150000 -1.814372 -1.811072
99.200000 -1.813880 -1.811072
99.250000 -1.813319 -1.811072
99.300000 -1.812705 -1.811072
99.350000 -1.812053 -1.811072
99.400000 -1.811380 -1.811072
99.450000 -1.810703 -1.811072
99.500000 -1.810041 -1.811072
99.550000 -1.809409 -1.811072
99.600000 -1.808824 -1.811072
99.650000 -1.808300 -1.811072
99.700000 -1.807851 -1.811072
99.750000 -1.807487 -1.811072
99.800000 -1.807217 -1.811072
99.850000 -1.807048 -1.811072
99.900000 -1.806983 -1.811072
99.950000 -1.807022 -1.811072
100.000000 -1.807166 -1.811072
100.050000 -1.807408 -1.811072
100.100000 -1.807742 -1.811072
100.150000 -1.808160 -1.811072
100.200000 -1.808649 -1.811072
100.250000 -1.809197 -1.811072
100.300000 -1.809789 -1.811072
100.350000 -1.810411 -1.811072
100.400000 -1.811045 -1.811072
100.450000 -1.811675 -1.811072
100.500000 -1.812287 -1.811072
100.550000 -1.812862 -1.811072
100.600000 -1.813389 -1.811072
100.650000 -1.813852 -1.811072
100.700000 -1.814242 -1.811072
100.750000 -1.814547 -1.811072
100.800000 -1.814762 -1.811072
100.850000 -1.814881 -1.811072
100.900000 -1.814901 -1.811072
100.950000 -1.814824 -1.811072
101.000000 -1.814650 -1.811072
101.050000 -1.814387 -1.811072
101.100000 -1.814040 -1.811072
101.150000 -1.813620 -1.811072
101.200000 -1.813137 -1.811072
101.250000 -1.812605 -1.811072
101.300000 -1.812036 -1.811072
101.350000 -1.811447 -1.811072
101.400000 -1.810853 -1.811072
101.450000 -1.810267 -1.811072
101.500000 -1.809706 -1.811072
101.550000 -1.809184 -1.811072
101.600000 -1.808714 -1.811072
101.650000 -1.808307 -1.811072
101.700000 -1.807973 -1.811072
101.750000 -1.807721 -1.811072
101.800000 -1.807556 -1.811072
101.850000 -1.807483 -1.811072
101.900000 -1.807502 -1.811072
101.950000 -1.807612 -1.811072
102.000000 -1.807809 -1.811072
102.050000 -1.808089 -1.811072
102.100000 -1.808444 -1.811072
102.150000 -1.808863 -1.811072
102.200000 -1.809337 -1.811072
102.250000 -1.809851 -1.811072
102.300000 -1.810393 -1.811072
102.350000 -1.810949 -1.811072
102.400000 -1.811505 -1.811072
102.450000 -1.812046 -1.811072
102.500000 -1.812558 -1.811072
102.550000 -1.813029 -1.811072
102.600000 -1.813447 -1.811072
102.650000 -1.813801 -1.811072
102.700000 -1.814083 -1.811072
102.750000 -1.814286 -1.811072
102.800000 -1.814406 -1.811072
102.850000 -1.814439 -1.811072
102.900000 -1.814386 -1.811072
102.950000 -1.814249 -1.811072
103.000000 -1.814031 -1.811072
103.050000 -1.813738 -1.811072
103.100000 -1.813380 -1.811072
103.150000 -1.812965 -1.811072
103.200000 -1.812504 -1.811072
103.250000 -1.812009 -1.811072
103.300000 -1.811494 -1.811072
103.350000 -1.810971 -1.811072
103.400000 -1.810455 -1.811072
103.450000 -1.809957 -1.811072
103.500000 -1.809492 -1.811072
103.550000 -1.809069 -1.811072
103.600000 -1.808701 -1.811072
103.650000 -1.808396 -1.811072
103.700000 -1.808162 -1.811072
103.750000 -1.808003 -1.811072
103.800000 -1.807924 -1.811072
103.850000 -1.807926 -1.811072
103.900000 -1.808009 -1.811072
103.950000 -1.808170 -1.811072
104.000000 -1.808403 -1.811072
104.050000 -1.808704 -1.811072
104.100000 -1.809063 -1.811072
104.150000 -1.809471 -1.811072
104.200000 -1.809917 -1.811072
104.250000 -1.810390 -1.811072
104.300000 -1.810878 -1.811072
104.350000 -1.811367 -1.811072
104.400000 -1.811845 -1.811072
104.450000 -1.812300 -1.811072
104.500000 -1.812721 -1.811072
104.550000 -1.813097 -1.811072
104.600000 -1.813419 -1.811072
104.650000 -1.813678 -1.811072
104.700000 -1.813869 -1.811072
104.750000 -1.813988 -1.811072
104.800000 -1.814030 -1.811072
104.850000 -1.813997 -1.811072
104.900000 -1.813889 -1.811072
104.950000 -1.813710 -1.811072
105.000000 -1.813464 -1.811072
105.050000 -1.813159 -1.811072
105.100000 -1.812802 -1.811072
105.150000 -1.812404 -1.811072
105.200000 -1.811974 -1.811072
105.250000 -1.811524 -1.811072
105.300000 -1.811065 -1.811072
105.350000 -1.810609 -1.811072
105.400000 -1.810168 -1.811072
105.450000 -1.809753 -1.811072
105.500000 -1.809375 -1.811072
105.550000 -1.809043 -1.811072
105.600000 -1.808764 -1.811072
105.650000 -1.808547 -1.811072
105.700000 -1.808396 -1.811072
105.750000 -1.808314 -1.811072
105.800000 -1.808303 -1.811072
105.850000 -1.808363 -1.811072
105.900000 -1.808492 -1.811072
105.950000 -1.808687 -1.811072
106.000000 -1.808941 -1.811072
106.050000 -1.809248 -1.811072
106.100000 -1.809599 -1.811072
106.150000 -1.809986 -1.811072
106.200000 -1.810398 -1.811072
106.250000 -1.810825 -1.811072
106.300000 -1.811255 -1.811072
106.350000 -1.811678 -1.811072
106.400000 -1.812082 -1.811072
106.450000 -1.812458 -1.811072
106.500000 -1.812796 -1.811072
106.550000 -1.813088 -1.811072
106.600000 -1.813326 -1.811072
106.650000 -1.813504 -1.811072
106.700000 -1.813620 -1.811072
106.750000 -1.813669 -1.811072
106.800000 -1.813652 -1.811072
106.850000 -1.813568 -1.811072
106.900000 -1.813422 -1.811072
106.950000 -1.813216 -1.811072
107.000000 -1.812956 -1.811072
107.050000 -1.812651 -1.811072
107.100000 -1.812306 -1.811072
107.150000 -1.811933 -1.811072
107.200000 -1.811539 -1.811072
107.250000 -1.811137 -1.811072
107.300000 -1.810735 -1.811072
107.350000 -1.810345 -1.811072
107.400000 -1.809976 -1.811072
107.450000 -1.809637 -1.811072
107.500000 -1.809338 -1.811072
107.550000 -1.809084 -1.811072
107.600000 -1.808883 -1.811072
107.650000 -1.808740 -1.811072
107.700000 -1.808657 -1.811072
107.750000 -1.808637 -1.811072
107.800000 -1.808679 -1.811072
107.850000 -1.808781 -1.811072
107.900000 -1.808942 -1.811072
107.950000 -1.809157 -1.811072
108.000000 -1.809419 -1.811072
108.050000 -1.809721 -1.811072
108.100000 -1.810056 -1.811072
108.150000 -1.810415 -1.811072
108.200000 -1.810788 -1.811072
108.250000 -1.811166 -1.811072
108.300000 -1.811540 -1.811072
108.350000 -1.811898 -1.811072
108.400000 -1.812234 -1.811072
108.450000 -1.812537 -1.811072
108.500000 -1.812801 -1.811072
108.550000 -1.813019 -1.811072
108.600000 -1.813185 -1.811072
108.650000 -1.813296 -1.811072
108.700000 -1.813350 -1.811072
108.750000 -1.813345 -1.811072
108.800000 -1.813282 -1.811072
108.850000 -1.813163 -1.811072
108.900000 -1.812991 -1.811072
108.950000 -1.812771 -1.811072
109.000000 -1.812509 -1.811072
109.050000 -1.812212 -1.811072
109.100000 -1.811888 -1.811072
109.150000 -1.811545 -1.811072
109.200000 -1.811192 -1.811072
109.250000 -1.810838 -1.811072
109.300000 -1.810493 -1.811072
109.350000 -1.810165 -1.811072
109.400000 -1.809862 -1.811072
109.450000 -1.809592 -1.811072
109.500000 -1.809362 -1.811072
109.550000 -1.809177 -1.811072
109.600000 -1.809042 -1.811072
109.650000 -1.808959 -1.811072
109.700000 -1.808932 -1.811072
109.750000 -1.808959 -1.811072
109.800000 -1.809040 -1.811072
109.850000 -1.809172 -1.811072
109.900000 -1.809353 -1.811072
109.950000 -1.809576 -1.811072
110.000000 -1.809836 -1.811072
110.050000 -1.810126 -1.811072
110.100000 -1.810438 -1.811072
110.150000 -1.810764 -1.811072
110.200000 -1.811096 -1.811072
110.250000 -1.811426 -1.811072
110.300000 -1.811744 -1.811072
110.350000 -1.812042 -1.811072
110.400000 -1.812314 -1.811072
110.450000 -1.812553 -1.811072
110.500000 -1.812751 -1.811072
110.550000 -1.812906 -1.811072
110.600000 -1.813013 -1.811072
110.650000 -1.813069 -1.811072
110.700000 -1.813074 -1.811072
110.750000 -1.813027 -1.811072
110.800000 -1.812931 -1.811072
110.850000 -1.812788 -1.811072
110.900000 -1.812602 -1.811072
110.950000 -1.812377 -1.811072
111.000000 -1.812121 -1.811072
111.050000 -1.811840 -1.811072
111.100000 -1.811541 -1.811072
111.150000 -1.811232 -1.811072
111.200000 -1.810921 -1.811072
111.250000 -1.810616 -1.811072
111.300000 -1.810324 -1.811072
111.350000 -1.810054 -1.811072
111.400000 -1.809811 -1.811072
111.450000 -1.809603 -1.811072
111.500000 -1.809433 -1.811072
111.550000 -1.809306 -1.811072
111.600000 -1.809225 -1.811072
111.650000 -1.809192 -1.811072
111.700000 -1.809208 -1.811072
111.750000 -1.809271 -1.811072
111.800000 -1.809379 -1.811072
111.850000 -1.809531 -1.811072
111.900000 -1.809720 -1.811072
111.950000 -1.809944 -1.811072
112.000000 -1.810194 -1.811072
112.050000 -1.810465 -1.811072
112.100000 -1.810750 -1.811072
112.150000 -1.811042 -1.811072
112.200000 -1.811332 -1.811072
112.250000 -1.811614 -1.811072
112.300000 -1.811879 -1.811072
112.350000 -1.812123 -1.811072
112.400000 -1.812338 -1.811072
112.450000 -1.812519 -1.811072
112.500000 -1.812662 -1.811072
112.550000 -1.812763 -1.811072
112.600000 -1.812821 -1.811072
112.650000 -1.812833 -1.811072
112.700000 -1.812800 -1.811072
112.750000 -1.812723 -1.811072
112.800000 -1.812604 -1.811072
112.850000 -1.812447 -1.811072
112.900000 -1.812256 -1.811072
112.950000 -1.812035 -1.811072
113.000000 -1.811792 -1.811072
113.050000 -1.811532 -1.811072
113.100000 -1.811261 -1.811072
113.150000 -1.810988 -1.811072
113.200000 -1.810718 -1.811072
113.250000 -1.810459 -1.811072
113.300000 -1.810218 -1.811072
113.350000 -1.810000 -1.811072
113.400000 -1.809811 -1.811072
113.450000 -1.809656 -1.811072
113.500000 -1.809537 -1.811072
113.550000 -1.809459 -1.811072
113.600000 -1.809423 -1.811072
113.650000 -1.809429 -1.811072
113.700000 -1.809477 -1.811072
113.750000 -1.809565 -1.811072
113.800000 -1.809692 -1.811072
113.850000 -1.809853 -1.811072
113.900000 -1.810044 -1.811072
113.950000 -1.810260 -1.811072
114.000000 -1.810496 -1.811072
114.050000 -1.810745 -1.811072
114.100000 -1.811000 -1.811072
114.150000 -1.811256 -1.811072
114.200000 -1.811505 -1.811072
114.250000 -1.811741 -1.811072
114.300000 -1.811959 -1.811072
114.350000 -1.812153 -1.811072
114.400000 -1.812318 -1.811072
114.450000 -1.812449 -1.811072
114.500000 -1.812545 -1.811072
114.550000 -1.812602 -1.811072
114.600000 -1.812620 -1.811072
114.650000 -1.812598 -1.811072
114.700000 -1.812537 -1.811072
114.750000 -1.812439 -1.811072
114.800000 -1.812307 -1.811072
114.850000 -1.812144 -1.811072
114.900000 -1.811954 -1.811072
114.950000 -1.811743 -1.811072
115.000000 -1.811517 -1.811072
115.050000 -1.811280 -1.811072
115.100000 -1.811040 -1.811072
115.150000 -1.810802 -1.811072
115.200000 -1.810573 -1.811072
115.250000 -1.810358 -1.811072
115.300000 -1.810162 -1.811072
115.350000 -1.809992 -1.811072
115.400000 -1.809849 -1.811072
115.450000 -1.809740 -1.811072
115.500000 -1.809665 -1.811072
115.550000 -1.809626 -1.811072
115.600000 -1.809625 -1.811072
115.650000 -1.809660 -1.811072
115.700000 -1.809732 -1.811072
115.750000 -1.809838 -1.811072
115.800000 -1.809974 -1.811072
115.850000 -1.810138 -1.811072
115.900000 -1.810324 -1.811072
115.950000 -1.810528 -1.811072
116.000000 -1.810745 -1.811072
116.050000 -1.810969 -1.811072
116.100000 -1.811194 -1.811072
116.150000 -1.811414 -1.811072
116.200000 -1.811624 -1.811072
116.250000 -1.811819 -1.811072
116.300000 -1.811993 -1.811072
116.350000 -1.812143 -1.811072
116.400000 -1.812264 -1.811072
116.450000 -1.812354 -1.811072
116.500000 -1.812410 -1.811072
116.550000 -1.812432 -1.811072
116.600000 -1.812419 -1.811072
116.650000 -1.812371 -1.811072
116.700000 -1.812291 -1.811072
116.750000 -1.812179 -1.811072
116.800000 -1.812041 -1.811072
116.850000 -1.811878 -1.811072
116.900000 -1.811696 -1.811072
116.950000 -1.811499 -1.811072
117.000000 -1.811292 -1.811072
117.050000 -1.811081 -1.811072
117.100000 -1.810872 -1.811072
117.150000 -1.810668 -1.811072
117.200000 -1.810477 -1.811072
117.250000 -1.810302 -1.811072
117.300000 -1.810148 -1.811072
117.350000 -1.810018 -1.811072
117.400000 -1.809916 -1.811072
117.450000 -1.809845 -1.811072
117.500000 -1.809805 -1.811072
117.550000 -1.809798 -1.811072
117.600000 -1.809824 -1.811072
117.650000 -1.809882 -1.811072
117.700000 -1.809969 -1.811072
117.750000 -1.810084 -1.811072
117.800000 -1.810224 -1.811072
117.850000 -1.810385 -1.811072
117.900000 -1.810562 -1.811072
117.950000 -1.810750 -1.811072
118.000000 -1.810946 -1.811072
118.050000 -1.811144 -1.811072
118.100000 -1.811339 -1.811072
118.150000 -1.811525 -1.811072
118.200000 -1.811699 -1.811072
118.250000 -1.811856 -1.811072
118.300000 -1.811991 -1.811072
118.350000 -1.812102 -1.811072
118.400000 -1.812186 -1.811072
118.450000 -1.812241 -1.811072
118.500000 -1.812265 -1.811072
118.550000 -1.812259 -1.811072
118.600000 -1.812223 -1.811072
118.650000 -1.812157 -1.811072
118.700000 -1.812064 -1.811072
118.750000 -1.811946 -1.811072
118.800000 -1.811807 -1.811072
118.850000 -1.811649 -1.811072
118.900000 -1.811478 -1.811072
118.950000 -1.811298 -1.811072
119.000000 -1.811113 -1.811072
119.050000 -1.810928 -1.811072
119.100000 -1.810748 -1.811072
119.150000 -1.810578 -1.811072
119.200000 -1.810421 -1.811072
119.250000 -1.810282 -1.811072
119.300000 -1.810164 -1.811072
119.350000 -1.810071 -1.811072
119.400000 -1.810003 -1.811072
119.450000 -1.809963 -1.811072
119.500000 -1.809952 -1.811072
119.550000 -1.809970 -1.811072
119.600000 -1.810015 -1.811072
119.650000 -1.810088 -1.811072
119.700000 -1.810185 -1.811072
119.750000 -1.810304 -1.811072
119.800000 -1.810442 -1.811072
119.850000 -1.810595 -1.811072
119.900000 -1.810760 -1.811072
119.950000 -1.810931 -1.811072
120.000000 -1.811105 -1.811072
120.050000 -1.811277 -1.811072
120.100000 -1.811442 -1.811072
120.150000 -1.811597 -1.811072
120.200000 -1.811737 -1.811072
120.250000 -1.811860 -1.811072
120.300000 -1.811961 -1.811072
120.350000 -1.812039 -1.811072
120.400000 -1.812092 -1.811072
120.450000 -1.812118 -1.811072
120.500000 -1.812118 -1.811072
120.550000 -1.812090 -1.811072
120.600000 -1.812037 -1.811072
120.650000 -1.811960 -1.811072
120.700000 -1.811860 -1.811072
120.750000 -1.811740 -1.811072
120.800000 -1.811605 -1.811072
120.850000 -1.811456 -1.811072
120.900000 -1.811299 -1.811072
120.950000 -1.811137 -1.811072
121.000000 -1.810974 -1.811072
121.050000 -1.810815 -1.811072
121.100000 -1.810664 -1.811072
121.150000 -1.810524 -1.811072
121.200000 -1.810399 -1.811072
121.250000 -1.810292 -1.811072
121.300000 -1.810205 -1.811072
121.350000 -1.810142 -1.811072
121.400000 -1.810102 -1.811072
121.450000 -1.810088 -1.811072
121.500000 -1.810099 -1.811072
121.550000 -1.810135 -1.811072
121.600000 -1.810194 -1.811072
121.650000 -1.810276 -1.811072
121.700000 -1.810377 -1.811072
121.750000 -1.810496 -1.811072
121.800000 -1.810628 -1.811072
121.850000 -1.810771 -1.811072
121.900000 -1.810921 -1.811072
121.950000 -1.811074 -1.811072
122.000000 -1.811225 -1.811072
122.050000 -1.811372 -1.811072
122.100000 -1.811510 -1.811072
122.150000 -1.811636 -1.811072
122.200000 -1.811746 -1.811072
122.250000 -1.811839 -1.811072
122.300000 -1.811911 -1.811072
122.350000 -1.811962 -1.811072
122.400000 -1.811989 -1.811072
122.450000 -1.811993 -1.811072
122.500000 -1.811973 -1.811072
122.550000 -1.811930 -1.811072
122.600000 -1.811865 -1.811072
122.650000 -1.811781 -1.811072
122.700000 -1.811679 -1.811072
122.750000 -1.811562 -1.811072
122.800000 -1.811433 -1.811072
122.850000 -1.811296 -1.811072
122.900000 -1.811154 -1.811072
122.950000 -1.811011 -1.811072
123.000000 -1.810871 -1.811072
123.050000 -1.810736 -1.811072
123.100000 -1.810611 -1.811072
123.150000 -1.810499 -1.811072
123.200000 -1.810402 -1.811072
123.250000 -1.810322 -1.811072
123.300000 -1.810263 -1.811072
123.350000 -1.810225 -1.811072
123.400000 -1.810208 -1.811072
123.450000 -1.810214 -1.811072
123.500000 -1.810241 -1.811072
123.550000 -1.810290 -1.811072
123.600000 -1.810359 -1.811072
123.650000 -1.810445 -1.811072
123.700000 -1.810547 -1.811072
123.750000 -1.810661 -1.811072
123.800000 -1.810785 -1.811072
123.850000 -1.810916 -1.811072
123.900000 -1.811050 -1.811072
123.950000 -1.811183 -1.811072
124.000000 -1.811313 -1.811072
124.050000 -1.811436 -1.811072
124.100000 -1.811549 -1.811072
124.150000 -1.811648 -1.811072
124.200000 -1.811733 -1.811072
124.250000 -1.811799 -1.811072
124.300000 -1.811847 -1.811072
124.350000 -1.811875 -1.811072
124.400000 -1.811882 -1.811072
124.450000 -1.811868 -1.811072
124.500000 -1.811834 -1.811072
124.550000 -1.811780 -1.811072
124.600000 -1.811709 -1.811072
124.650000 -1.811622 -1.811072
124.700000 -1.811521 -1.811072
124.750000 -1.811410 -1.811072
124.800000 -1.811291 -1.811072
124.850000 -1.811166 -1.811072
124.900000 -1.811041 -1.811072
124.950000 -1.810917 -1.811072
125.000000 -1.810797 -1.811072
125.050000 -1.810686 -1.811072
125.100000 -1.810585 -1.811072
125.150000 -1.810497 -1.811072
125.200000 -1.810425 -1.811072
125.250000 -1.810369 -1.811072
125.300000 -1.810332 -1.811072
125.350000 -1.810314 -1.811072
125.400000 -1.810316 -1.811072
125.450000 -1.810337 -1.811072
125.500000 -1.810376 -1.811072
125.550000 -1.810433 -1.811072
125.600000 -1.810507 -1.811072
125.650000 -1.810594 -1.811072
125.700000 -1.810692 -1.811072
125.750000 -1.810800 -1.811072
125.800000 -1.810914 -1.811072
125.850000 -1.811032 -1.811072
125.900000 -1.811149 -1.811072
125.950000 -1.811264 -1.811072
126.000000 -1.811373 -1.811072
126.050000 -1.811474 -1.811072
126.100000 -1.811564 -1.811072
126.150000 -1.811640 -1.811072
126.200000 -1.811702 -1.811072
126.250000 -1.811747 -1.811072
126.300000 -1.811774 -1.811072
126.350000 -1.811784 -1.811072
126.400000 -1.811775 -1.811072
126.450000 -1.811748 -1.811072
126.500000 -1.811704 -1.811072
126.550000 -1.811644 -1.811072
126.600000 -1.811570 -1.811072
126.650000 -1.811483 -1.811072
126.700000 -1.811387 -1.811072
126.750000 -1.811283 -1.811072
126.800000 -1.811174 -1.811072
126.850000 -1.811064 -1.811072
126.900000 -1.810954 -1.811072
126.950000 -1.810849 -1.811072
127.000000 -1.810749 -1.811072
127.050000 -1.810659 -1.811072
127.100000 -1.810580 -1.811072
127.150000 -1.810513 -1.811072
127.200000 -1.810462 -1.811072
127.250000 -1.810426 -1.811072
127.300000 -1.810408 -1.811072
127.350000 -1.810406 -1.811072
127.400000 -1.810422 -1.811072
127.450000 -1.810453 -1.811072
127.500000 -1.810501 -1.811072
127.550000 -1.810563 -1.811072
127.600000 -1.810637 -1.811072
127.650000 -1.810723 -1.811072
127.700000 -1.810816 -1.811072
127.750000 -1.810915 -1.811072
127.800000 -1.811018 -1.811072
127.850000 -1.811122 -1.811072
127.900000 -1.811223 -1.811072
127.950000 -1.811320 -1.811072
128.000000 -1.811410 -1.811072
128.050000 -1.811491 -1.811072
128.100000 -1.811560 -1.811072
128.150000 -1.811617 -1.811072
128.200000 -1.811659 -1.811072
128.250000 -1.811686 -1.811072
128.300000 -1.811697 -1.811072
128.350000 -1.811692 -1.811072
128.400000 -1.811671 -1.811072
128.450000 -1.811635 -1.811072
128.500000 -1.811584 -1.811072
128.550000 -1.811521 -1.811072
128.600000 -1.811447 -1.811072
128.650000 -1.811364 -1.811072
128.700000 -1.811274 -1.811072
128.750000 -1.811179 -1.811072
128.800000 -1.811082 -1.811072
128.850000 -1.810986 -1.811072
128.900000 -1.810892 -1.811072
128.950000 -1.810803 -1.811072
129.000000 -1.810722 -1.811072
129.050000 -1.810651 -1.811072
129.100000 -1.810591 -1.811072
129.150000 -1.810543 -1.811072
129.200000 -1.810509 -1.811072
129.250000 -1.810490 -1.811072
129.300000 -1.810486 -1.811072
129.350000 -1.810497 -1.811072
129.400000 -1.810523 -1.811072
129.450000 -1.810562 -1.811072
129.500000 -1.810614 -1.811072
129.550000 -1.810678 -1.811072
129.600000 -1.810751 -1.811072
129.650000 -1.810832 -1.811072
129.700000 -1.810919 -1.811072
129.750000 -1.811009 -1.811072
129.800000 -1.811100 -1.811072
129.850000 -1.811189 -1.811072
129.900000 -1.811275 -1.811072
129.950000 -1.811356 -1.811072
130.000000 -1.811428 -1.811072
130.050000 -1.811491 -1.811072
130.100000 -1.811543 -1.811072
130.150000 -1.811582 -1.811072
130.200000 -1.811608 -1.811072
130.250000 -1.811620 -1.811072
130.300000 -1.811618 -1.811072
130.350000 -1.811602 -1.811072
130.400000 -1.811573 -1.811072
130.450000 -1.811531 -1.811072
130.500000 -1.811477 -1.811072
130.550000 -1.811414 -1.811072
130.600000 -1.811342 -1.811072
130.650000 -1.811264 -1.811072
130.700000 -1.811181 -1.811072
130.750000 -1.811096 -1.811072
130.800000 -1.811011 -1.811072
130.850000 -1.810928 -1.811072
130.900000 -1.810849 -1.811072
130.950000 -1.810777 -1.811072
131.000000 -1.810712 -1.811072
131.050000 -1.810658 -1.811072
131.100000 -1.810614 -1.811072
131.150000 -1.810582 -1.811072
131.200000 -1.810563 -1.811072
131.250000 -1.810557 -1.811072
131.300000 -1.810564 -1.811072
131.350000 -1.810584 -1.811072
131.400000 -1.810617 -1.811072
131.450000 -1.810661 -1.811072
131.500000 -1.810715 -1.811072
131.550000 -1.810778 -1.811072
131.600000 -1.810848 -1.811072
131.650000 -1.810924 -1.811072
131.700000 -1.811002 -1.811072
131.750000 -1.811082 -1.811072
131.800000 -1.811161 -1.811072
131.850000 -1.811238 -1.811072
131.900000 -1.811309 -1.811072
131.950000 -1.811374 -1.811072
132.000000 -1.811431 -1.811072
132.050000 -1.811478 -1.811072
132.100000 -1.811515 -1.811072
132.150000 -1.811540 -1.811072
132.200000 -1.811553 -1.811072
132.250000 -1.811553 -1.811072
132.300000 -1.811541 -1.811072
132.350000 -1.811517 -1.811072
132.400000 -1.811482 -1.811072
132.450000 -1.811437 -1.811072
132.500000 -1.811383 -1.811072
132.550000 -1.811321 -1.811072
132.600000 -1.811253 -1.811072
132.650000 -1.811181 -1.811072
132.700000 -1.811106 -1.811072
132.750000 -1.811031 -1.811072
132.800000 -1.810958 -1.811072
132.850000 -1.810888 -1.811072
132.900000 -1.810824 -1.811072
132.950000 -1.810766 -1.811072
133.000000 -1.810716 -1.811072
133.050000 -1.810676 -1.811072
133.100000 -1.810646 -1.811072
133.150000 -1.810627 -1.811072
133.200000 -1.810620 -1.811072
133.250000 -1.810624 -1.811072
133.300000 -1.810640 -1.811072
133.350000 -1.810666 -1.811072
133.400000 -1.810703 -1.811072
133.450000 -1.810750 -1.811072
133.500000 -1.810804 -1.811072
133.550000 -1.810864 -1.811072
133.600000 -1.810930 -1.811072
133.650000 -1.810998 -1.811072
133.700000 -1.811068 -1.811072
133.750000 -1.811138 -1.811072
133.800000 -1.811206 -1.811072
133.850000 -1.811270 -1.811072
133.900000 -1.811328 -1.811072
133.950000 -1.811379 -1.811072
134.000000 -1.811422 -1.811072
134.050000 -1.811456 -1.811072
134.100000 -1.811480 -1.811072
134.150000 -1.811493 -1.811072
134.200000 -1.811495 -1.811072
134.250000 -1.811487 -1.811072
134.300000 -1.811468 -1.811072
134.350000 -1.811439 -1.811072
134.400000 -1.811400 -1.811072
134.450000 -1.811354 -1.811072
134.500000 -1.811301 -1.811072
134.550000 -1.811242 -1.811072
134.600000 -1.811179 -1.811072
134.650000 -1.811114 -1.811072
134.700000 -1.811048 -1.811072
134.750000 -1.810983 -1.811072
134.800000 -1.810921 -1.811072
134.850000 -1.810863 -1.811072
134.900000 -1.810811 -1.811072
134.950000 -1.810766 -1.811072
135.000000 -1.810729 -1.811072
135.050000 -1.810701 -1.811072
135.100000 -1.810683 -1.811072
135.150000 -1.810675 -1.811072
135.200000 -1.810677 -1.811072
135.250000 -1.810689 -1.811072
135.300000 -1.810711 -1.811072
135.350000 -1.810742 -1.811072
135.400000 -1.810781 -1.811072
135.450000 -1.810827 -1.811072
135.500000 -1.810880 -1.811072
135.550000 -1.810936 -1.811072
135.600000 -1.810996 -1.811072
135.650000 -1.811058 -1.811072
135.700000 -1.811119 -1.811072
135.750000 -1.811179 -1.811072
135.800000 -1.811236 -1.811072
135.850000 -1.811288 -1.811072
135.900000 -1.811334 -1.811072
135.950000 -1.811373 -1.811072
136.000000 -1.811405 -1.811072
136.050000 -1.811427 -1.811072
136.100000 -1.811440 -1.811072
136.150000 -1.811444 -1.811072
136.200000 -1.811438 -1.811072
136.250000 -1.811423 -1.811072
136.300000 -1.811399 -1.811072
136.350000 -1.811367 -1.811072
136.400000 -1.811327 -1.811072
136.450000 -1.811281 -1.811072
136.500000 -1.811230 -1.811072
136.550000 -1.811176 -1.811072
136.600000 -1.811119 -1.811072
136.650000 -1.811061 -1.811072
136.700000 -1.811004 -1.811072
136.750000 -1.810949 -1.811072
136.800000 -1.810897 -1.811072
136.850000 -1.810851 -1.811072
136.900000 -1.810810 -1.811072
136.950000 -1.810776 -1.811072
137.000000 -1.810750 -1.811072
137.050000 -1.810733 -1.811072
137.100000 -1.810724 -1.811072
137.150000 -1.810724 -1.811072
137.200000 -1.810733 -1.811072
137.250000 -1.810751 -1.811072
137.300000 -1.810777 -1.811072
137.350000 -1.810810 -1.811072
137.400000 -1.810849 -1.811072
137.450000 -1.810895 -1.811072
137.500000 -1.810944 -1.811072
137.550000 -1.810996 -1.811072
137.600000 -1.811050 -1.811072
137.650000 -1.811104 -1.811072
137.700000 -1.811157 -1.811072
137.750000 -1.811207 -1.811072
137.800000 -1.811254 -1.811072
137.850000 -1.811296 -1.811072
137.900000 -1.811331 -1.811072
137.950000 -1.811360 -1.811072
138.000000 -1.811381 -1.811072
138.050000 -1.811394 -1.811072
138.100000 -1.811399 -1.811072
138.150000 -1.811395 -1.811072
138.200000 -1.811383 -1.811072
138.250000 -1.811364 -1.811072
138.300000 -1.811337 -1.811072
138.350000 -1.811303 -1.811072
138.400000 -1.811263 -1.811072
138.450000 -1.811219 -1.811072
138.500000 -1.811172 -1.811072
138.550000 -1.811122 -1.811072
138.600000 -1.811071 -1.811072
138.650000 -1.811021 -1.811072
138.700000 -1.810972 -1.811072
138.750000 -1.810926 -1.811072
138.800000 -1.810884 -1.811072
138.850000 -1.810848 -1.811072
138.900000 -1.810817 -1.811072
138.950000 -1.810793 -1.811072
139.000000 -1.810776 -1.811072
139.050000 -1.810767 -1.811072
139.100000 -1.810766 -1.811072
139.150000 -1.810772 -1.811072
139.200000 -1.810786 -1.811072
139.250000 -1.810808 -1.811072
139.300000 -1.810836 -1.811072
139.350000 -1.810870 -1.811072
139.400000 -1.810909 -1.811072
139.450000 -1.810952 -1.811072
139.500000 -1.810997 -1.811072
139.550000 -1.811044 -1.811072
139.600000 -1.811092 -1.811072
139.650000 -1.811139 -1.811072
139.700000 -1.811183 -1.811072
139.750000 -1.811225 -1.811072
139.800000 -1.811262 -1.811072
139.850000 -1.811295 -1.811072
139.900000 -1.811321 -1.811072
139.950000 -1.811341 -1.811072
140.000000 -1.811354 -1.811072
140.050000 -1.811359 -1.811072
140.100000 -1.811357 -1.811072
140.150000 -1.811348 -1.811072
140.200000 -1.811332 -1.811072
140.250000 -1.811309 -1.811072
140.300000 -1.811280 -1.811072
140.350000 -1.811247 -1.811072
140.400000 -1.811209 -1.811072
140.450000 -1.811167 -1.811072
140.500000 -1.811124 -1.811072
140.550000 -1.811079 -1.811072
140.600000 -1.811035 -1.811072
140.650000 -1.810992 -1.811072
140.700000 -1.810951 -1.811072
140.750000 -1.810913 -1.811072
140.800000 -1.810880 -1.811072
140.850000 -1.810852 -1.811072
140.900000 -1.810830 -1.811072
140.950000 -1.810814 -1.811072
141.000000 -1.810805 -1.811072
141.050000 -1.810802 -1.811072
141.100000 -1.810807 -1.811072
141.150000 -1.810818 -1.811072
141.200000 -1.810836 -1.811072
141.250000 -1.810860 -1.811072
141.300000 -1.810889 -1.811072
141.350000 -1.810922 -1.811072
141.400000 -1.810959 -1.811072
141.450000 -1.810999 -1.811072
141.500000 -1.811040 -1.811072
141.550000 -1.811082 -1.811072
141.600000 -1.811123 -1.811072
141.650000 -1.811163 -1.811072
141.700000 -1.811200 -1.811072
141.750000 -1.811234 -1.811072
141.800000 -1.811263 -1.811072
141.850000 -1.811287 -1.811072
141.900000 -1.811305 -1.811072
141.950000 -1.811318 -1.811072
142.000000 -1.811324 -1.811072
142.050000 -1.811323 -1.811072
142.100000 -1.811316 -1.811072
142.150000 -1.811303 -1.811072
142.200000 -1.811284 -1.811072
142.250000 -1.811260 -1.811072
142.300000 -1.811231 -1.811072
142.350000 -1.811198 -1.811072
142.400000 -1.811162 -1.811072
142.450000 -1.811124 -1.811072
142.500000 -1.811085 -1.811072
142.550000 -1.811046 -1.811072
142.600000 -1.811008 -1.811072
142.650000 -1.810972 -1.811072
142.700000 -1.810938 -1.811072
142.750000 -1.810908 -1.811072
142.800000 -1.810883 -1.811072
142.850000 -1.810862 -1.811072
142.900000 -1.810847 -1.811072
142.950000 -1.810838 -1.811072
143.000000 -1.810835 -1.811072
143.050000 -1.810838 -1.811072
143.100000 -1.810847 -1.811072
143.150000 -1.810862 -1.811072
143.200000 -1.810882 -1.811072
143.250000 -1.810906 -1.811072
143.300000 -1.810935 -1.811072
143.350000 -1.810967 -1.811072
143.400000 -1.811002 -1.811072
143.450000 -1.811038 -1.811072
143.500000 -1.811074 -1.811072
143.550000 -1.811111 -1.811072
143.600000 -1.811146 -1.811072
143.650000 -1.811179 -1.811072
143.700000 -1.811209 -1.811072
143.750000 -1.811235 -1.811072
143.800000 -1.811257 -1.811072
143.850000 -1.811275 -1.811072
143.900000 -1.811286 -1.811072
143.950000 -1.811293 -1.811072
144.000000 -1.811293 -1.811072
144.050000 -1.811288 -1.811072
144.100000 -1.811277 -1.811072
144.150000 -1.811262 -1.811072
144.200000 -1.811241 -1.811072
144.250000 -1.811216 -1.811072
144.300000 -1.811188 -1.811072
144.350000 -1.811157 -1.811072
144.400000 -1.811124 -1.811072
144.450000 -1.811090 -1.811072
144.500000 -1.811055 -1.811072
144.550000 -1.811022 -1.811072
144.600000 -1.810989 -1.811072
144.650000 -1.810959 -1.811072
144.700000 -1.810933 -1.811072
144.750000 -1.810909 -1.811072
144.800000 -1.810891 -1.811072
144.850000 -1.810877 -1.811072
144.900000 -1.810868 -1.811072
144.950000 -1.810864 -1.811072
145.000000 -1.810866 -1.811072
145.050000 -1.810873 -1.811072
145.100000 -1.810885 -1.811072
145.150000 -1.810901 -1.811072
145.200000 -1.810922 -1.811072
145.250000 -1.810947 -1.811072
145.300000 -1.810975 -1.811072
145.350000 -1.811005 -1.811072
145.400000 -1.811036 -1.811072
145.450000 -1.811068 -1.811072
145.500000 -1.811100 -1.811072
145.550000 -1.811132 -1.811072
145.600000 -1.811161 -1.811072
145.650000 -1.811188 -1.811072
145.700000 -1.811212 -1.811072
145.750000 -1.811232 -1.811072
145.800000 -1.811248 -1.811072
145.850000 -1.811259 -1.811072
145.900000 -1.811265 -1.811072
145.950000 -1.811267 -1.811072
146.000000 -1.811263 -1.811072
146.050000 -1.811254 -1.811072
146.100000 -1.811241 -1.811072
146.150000 -1.811224 -1.811072
146.200000 -1.811203 -1.811072
146.250000 -1.811179 -1.811072
146.300000 -1.811152 -1.811072
146.350000 -1.811123 -1.811072
146.400000 -1.811093 -1.811072
146.450000 -1.811063 -1.811072
146.500000 -1.811033 -1.811072
146.550000 -1.811004 -1.811072
146.600000 -1.810978 -1.811072
146.650000 -1.810953 -1.811072
146.700000 -1.810932 -1.811072
146.750000 -1.810915 -1.811072
146.800000 -1.810902 -1.811072
146.850000 -1.810894 -1.811072
146.900000 -1.810889 -1.811072
146.950000 -1.810890 -1.811072
147.000000 -1.810895 -1.811072
147.050000 -1.810905 -1.811072
147.100000 -1.810919 -1.811072
147.150000 -1.810937 -1.811072
147.200000 -1.810958 -1.811072
147.250000 -1.810982 -1.811072
147.300000 -1.811008 -1.811072
147.350000 -1.811035 -1.811072
147.400000 -1.811064 -1.811072
147.450000 -1.811092 -1.811072
147.500000 -1.811120 -1.811072
147.550000 -1.811146 -1.811072
147.600000 -1.811170 -1.811072
147.650000 -1.811191 -1.811072
147.700000 -1.811209 -1.811072
147.750000 -1.811224 -1.811072
147.800000 -1.811235 -1.811072
147.850000 -1.811241 -1.811072
147.900000 -1.811243 -1.811072
147.950000 -1.811241 -1.811072
148.000000 -1.811234 -1.811072
148.050000 -1.811223 -1.811072
148.100000 -1.811208 -1.811072
148.150000 -1.811190 -1.811072
148.200000 -1.811170 -1.811072
148.250000 -1.811146 -1.811072
148.300000 -1.811121 -1.811072
148.350000 -1.811095 -1.811072
148.400000 -1.811068 -1.811072
148.450000 -1.811042 -1.811072
148.500000 -1.811017 -1.811072
148.550000 -1.810993 -1.811072
148.600000 -1.810971 -1.811072
148.650000 -1.810952 -1.811072
148.700000 -1.810937 -1.811072
148.750000 -1.810925 -1.811072
148.800000 -1.810916 -1.811072
148.850000 -1.810912 -1.811072
148.900000 -1.810912 -1.811072
148.950000 -1.810916 -1.811072
149.000000 -1.810924 -1.811072
149.050000 -1.810935 -1.811072
149.100000 -1.810950 -1.811072
149.150000 -1.810968 -1.811072
149.200000 -1.810989 -1.811072
149.250000 -1.811012 -1.811072
149.300000 -1.811036 -1.811072
149.350000 -1.811060 -1.811072
149.400000 -1.811085 -1.811072
149.450000 -1.811110 -1.811072
149.500000 -1.811133 -1.811072
149.550000 -1.811154 -1.811072
149.600000 -1.811174 -1.811072
149.650000 -1.811190 -1.811072
149.700000 -1.811204 -1.811072
149.750000 -1.811214 -1.811072
149.800000 -1.811220 -1.811072
149.850000 -1.811222 -1.811072
149.900000 -1.811221 -1.811072
149.950000 -1.811216 -1.811072
150.000000 -1.811207 -1.811072
150.050000 -1.811194 -1.811072
150.100000 -1.811179 -1.811072
150.150000 -1.811161 -1.811072
150.200000 -1.811141 -1.811072
150.250000 -1.811119 -1.811072
150.300000 -1.811096 -1.811072
150.350000 -1.811073 -1.811072
150.400000 -1.811050 -1.811072
150.450000 -1.811027 -1.811072
150.500000 -1.811006 -1.811072
150.550000 -1.810987 -1.811072
150.600000 -1.810970 -1.811072
150.650000 -1.810955 -1.811072
150.700000 -1.810944 -1.811072
150.750000 -1.810936 -1.811072
150.800000 -1.810932 -1.811072
150.850000 -1.810931 -1.811072
150.900000 -1.810934 -1.811072
150.950000 -1.810940 -1.811072
151.000000 -1.810950 -1.811072
151.050000 -1.810963 -1.811072
151.100000 -1.810978 -1.811072
151.150000 -1.810996 -1.811072
151.200000 -1.811015 -1.811072
151.250000 -1.811036 -1.811072
151.300000 -1.811058 -1.811072
151.350000 -1.811080 -1.811072
151.400000 -1.811101 -1.811072
151.450000 -1.811122 -1.811072
151.500000 -1.811141 -1.811072
151.550000 -1.811158 -1.811072
151.600000 -1.811173 -1.811072
151.650000 -1.811186 -1.811072
151.700000 -1.811195 -1.811072
151.750000 -1.811201 -1.811072
151.800000 -1.811204 -1.811072
151.850000 -1.811203 -1.811072
151.900000 -1.811199 -1.811072
151.950000 -1.811192 -1.811072
152.000000 -1.811182 -1.811072
152.050000 -1.811169 -1.811072
152.100000 -1.811153 -1.811072
152.150000 -1.811136 -1.811072
152.200000 -1.811117 -1.811072
152.250000 -1.811097 -1.811072
152.300000 -1.811076 -1.811072
152.350000 -1.811056 -1.811072
152.400000 -1.811036 -1.811072
152.450000 -1.811017 -1.811072
152.500000 -1.811000 -1.811072
152.550000 -1.810985 -1.811072
152.600000 -1.810972 -1.811072
152.650000 -1.810961 -1.811072
152.700000 -1.810954 -1.811072
152.750000 -1.810949 -1.811072
152.800000 -1.810948 -1.811072
152.850000 -1.810950 -1.811072
152.900000 -1.810955 -1.811072
152.950000 -1.810963 -1.811072
153.000000 -1.810974 -1.811072
153.050000 -1.810987 -1.811072
153.100000 -1.811002 -1.811072
153.150000 -1.811019 -1.811072
153.200000 -1.811037 -1.811072
153.250000 -1.811056 -1.811072
153.300000 -1.811075 -1.811072
153.350000 -1.811094 -1.811072
153.400000 -1.811113 -1.811072
153.450000 -1.811130 -1.811072
153.500000 -1.811145 -1.811072
153.550000 -1.811159 -1.811072
153.600000 -1.811170 -1.811072
153.650000 -1.811179 -1.811072
153.700000 -1.811185 -1.811072
153.750000 -1.811188 -1.811072
153.800000 -1.811188 -1.811072
153.850000 -1.811184 -1.811072
153.900000 -1.811179 -1.811072
153.950000 -1.811170 -1.811072
154.000000 -1.811159 -1.811072
154.050000 -1.811146 -1.811072
154.100000 -1.811131 -1.811072
154.150000 -1.811114 -1.811072
154.200000 -1.811097 -1.811072
154.250000 -1.811079 -1.811072
154.300000 -1.811061 -1.811072
154.350000 -1.811044 -1.811072
154.400000 -1.811027 -1.811072
154.450000 -1.811011 -1.811072
154.500000 -1.810997 -1.811072
154.550000 -1.810986 -1.811072
154.600000 -1.810976 -1.811072
154.650000 -1.810969 -1.811072
154.700000 -1.810965 -1.811072
154.750000 -1.810963 -1.811072
154.800000 -1.810964 -1.811072
154.850000 -1.810968 -1.811072
154.900000 -1.810975 -1.811072
154.950000 -1.810984 -1.811072
155.000000 -1.810995 -1.811072
155.050000 -1.811008 -1.811072
155.100000 -1.811023 -1.811072
155.150000 -1.811039 -1.811072
155.200000 -1.811055 -1.811072
155.250000 -1.811072 -1.811072
155.300000 -1.811089 -1.811072
155.350000 -1.811105 -1.811072
155.400000 -1.811120 -1.811072
155.450000 -1.811134 -1.811072
155.500000 -1.811146 -1.811072
155.550000 -1.811157 -1.811072
155.600000 -1.811165 -1.811072
155.650000 -1.811170 -1.811072
155.700000 -1.811173 -1.811072
155.750000 -1.811174 -1.811072
155.800000 -1.811171 -1.811072
155.850000 -1.811167 -1.811072
155.900000 -1.811160 -1.811072
155.950000 -1.811150 -1.811072
156.000000 -1.811139 -1.811072
156.050000 -1.811126 -1.811072
156.100000 -1.811112 -1.811072
156.150000 -1.811097 -1.811072
156.200000 -1.811081 -1.811072
156.250000 -1.811065 -1.811072
156.300000 -1.811050 -1.811072
156.350000 -1.811035 -1.811072
156.400000 -1.811021 -1.811072
156.450000 -1.811009 -1.811072
156.500000 -1.810998 -1.811072
156.550000 -1.810989 -1.811072
156.600000 -1.810982 -1.811072
156.650000 -1.810978 -1.811072
156.700000 -1.810976 -1.811072
156.750000 -1.810977 -1.811072
156.800000 -1.810980 -1.811072
156.850000 -1.810985 -1.811072
156.900000 -1.810993 -1.811072
156.950000 -1.811002 -1.811072
157.000000 -1.811014 -1.811072
157.050000 -1.811026 -1.811072
157.100000 -1.811040 -1.811072
157.150000 -1.811055 -1.811072
157.200000 -1.811069 -1.811072
157.250000 -1.811084 -1.811072
157.300000 -1.811098 -1.811072
157.350000 -1.811112 -1.811072
157.400000 -1.811124 -1.811072
157.450000 -1.811136 -1.811072
157.500000 -1.811145 -1.811072
157.550000 -1.811152 -1.811072
157.600000 -1.811158 -1.811072
157.650000 -1.811161 -1.811072
157.700000 -1.811161 -1.811072
157.750000 -1.811160 -1.811072
157.800000 -1.811156 -1.811072
157.850000 -1.811150 -1.811072
157.900000 -1.811142 -1.811072
157.950000 -1.811133 -1.811072
158.000000 -1.811122 -1.811072
158.050000 -1.811109 -1.811072
158.100000 -1.811096 -1.811072
158.150000 -1.811082 -1.811072
158.200000 -1.811068 -1.811072
158.250000 -1.811055 -1.811072
158.300000 -1.811042 -1.811072
158.350000 -1.811029 -1.811072
158.400000 -1.811018 -1.811072
158.450000 -1.811008 -1.811072
158.500000 -1.811000 -1.811072
158.550000 -1.810994 -1.811072
158.600000 -1.810990 -1.811072
158.650000 -1.810988 -1.811072
158.700000 -1.810988 -1.811072
158.750000 -1.810991 -1.811072
158.800000 -1.810995 -1.811072
158.850000 -1.811001 -1.811072
158.900000 -1.811009 -1.811072
158.950000 -1.811019 -1.811072
159.000000 -1.811030 -1.811072
159.050000 -1.811042 -1.811072
159.100000 -1.811054 -1.811072
159.150000 -1.811067 -1.811072
159.200000 -1.811080 -1.811072
159.250000 -1.811093 -1.811072
159.300000 -1.811105 -1.811072
159.350000 -1.811116 -1.811072
159.400000 -1.811126 -1.811072
159.450000 -1.811135 -1.811072
159.500000 -1.811141 -1.811072
159.550000 -1.811146 -1.811072
159.600000 -1.811149 -1.811072
159.650000 -1.811151 -1.811072
159.700000 -1.811150 -1.811072
159.750000 -1.811147 -1.811072
159.800000 -1.811142 -1.811072
159.850000 -1.811135 -1.811072
159.900000 -1.811127 -1.811072
159.950000 -1.811117 -1.811072
160.000000 -1.811107 -1.811072
160.050000 -1.811095 -1.811072
160.100000 -1.811083 -1.811072
160.150000 -1.811071 -1.811072
160.200000 -1.811059 -1.811072
160.250000 -1.811047 -1.811072
160.300000 -1.811036 -1.811072
160.350000 -1.811026 -1.811072
160.400000 -1.811017 -1.811072
160.450000 -1.811010 -1.811072
160.500000 -1.811004 -1.811072
160.550000 -1.811000 -1.811072
160.600000 -1.810998 -1.811072
160.650000 -1.810998 -1.811072
160.700000 -1.811000 -1.811072
160.750000 -1.811003 -1.811072
160.800000 -1.811009 -1.811072
160.850000 -1.811015 -1.811072
160.900000 -1.811024 -1.811072
160.950000 -1.811033 -1.811072
161.000000 -1.811043 -1.811072
161.050000 -1.811054 -1.811072
161.100000 -1.811066 -1.811072
161.150000 -1.811077 -1.811072
161.200000 -1.811088 -1.811072
161.250000 -1.811099 -1.811072
161.300000 -1.811109 -1.811072
161.350000 -1.811118 -1.811072
161.400000 -1.811126 -1.811072
161.450000 -1.811132 -1.811072
161.500000 -1.811137 -1.811072
161.550000 -1.811140 -1.811072
161.600000 -1.811141 -1.811072
161.650000 -1.811140 -1.811072
161.700000 -1.811138 -1.811072
161.750000 -1.811134 -1.811072
161.800000 -1.811129 -1.811072
161.850000 -1.811122 -1.811072
161.900000 -1.811113 -1.811072
161.950000 -1.811104 -1.811072
162.000000 -1.811094 -1.811072
162.050000 -1.811084 -1.811072
162.100000 -1.811073 -1.811072
162.150000 -1.811062 -1.811072
162.200000 -1.811052 -1.811072
162.250000 -1.811042 -1.811072
162.300000 -1.811033 -1.811072
162.350000 -1.811025 -1.811072
162.400000 -1.811019 -1.811072
162.450000 -1.811013 -1.811072
162.500000 -1.811010 -1.811072
162.550000 -1.811008 -1.811072
162.600000 -1.811007 -1.811072
162.650000 -1.811008 -1.811072
162.700000 -1.811011 -1.811072
162.750000 -1.811015 -1.811072
162.800000 -1.811021 -1.811072
162.850000 -1.811028 -1.811072
162.900000 -1.811036 -1.811072
162.950000 -1.811045 -1.811072
163.000000 -1.811055 -1.811072
163.050000 -1.811065 -1.811072
163.100000 -1.811075 -1.811072
163.150000 -1.811085 -1.811072
163.200000 -1.811094 -1.811072
163.250000 -1.811103 -1.811072
163.300000 -1.811111 -1.811072
163.350000 -1.811118 -1.811072
163.400000 -1.811124 -1.811072
163.450000 -1.811128 -1.811072
163.500000 -1.811131 -1.811072
163.550000 -1.811132 -1.811072
163.600000 -1.811132 -1.811072
163.650000 -1.811131 -1.811072
163.700000 -1.811127 -1.811072
163.750000 -1.811123 -1.811072
163.800000 -1.811117 -1.811072
163.850000 -1.811110 -1.811072
163.900000 -1.811102 -1.811072
163.950000 -1.811093 -1.811072
164.000000 -1.811084 -1.811072
164.050000 -1.811075 -1.811072
164.100000 -1.811065 -1.811072
164.150000 -1.811056 -1.811072
164.200000 -1.811047 -1.811072
164.250000 -1.811039 -1.811072
164.300000 -1.811032 -1.811072
164.350000 -1.811026 -1.811072
164.400000 -1.811021 -1.811072
164.450000 -1.811018 -1.811072
164.500000 -1.811016 -1.811072
164.550000 -1.811015 -1.811072
164.600000 -1.811016 -1.811072
164.650000 -1.811018 -1.811072
164.700000 -1.811021 -1.811072
164.750000 -1.811026 -1.811072
164.800000 -1.811032 -1.811072
164.850000 -1.811039 -1.811072
164.900000 -1.811047 -1.811072
164.950000 -1.811055 -1.811072
165.000000 -1.811064 -1.811072
165.050000 -1.811073 -1.811072
165.100000 -1.811082 -1.811072
165.150000 -1.811090 -1.811072
165.200000 -1.811098 -1.811072
165.250000 -1.811105 -1.811072
165.300000 -1.811112 -1.811072
165.350000 -1.811117 -1.811072
165.400000 -1.811121 -1.811072
165.450000 -1.811124 -1.811072
165.500000 -1.811125 -1.811072
165.550000 -1.811125 -1.811072
165.600000 -1.811124 -1.811072
165.650000 -1.811121 -1.811072
165.700000 -1.811117 -1.811072
165.750000 -1.811112 -1.811072
165.800000 -1.811106 -1.811072
165.850000 -1.811099 -1.811072
165.900000 -1.811092 -1.811072
165.950000 -1.811084 -1.811072
166.000000 -1.811076 -1.811072
166.050000 -1.811067 -1.811072
166.100000 -1.811059 -1.811072
166.150000 -1.811052 -1.811072
166.200000 -1.811044 -1.811072
166.250000 -1.811038 -1.811072
166.300000 -1.811032 -1.811072
166.350000 -1.811028 -1.811072
166.400000 -1.811025 -1.811072
166.450000 -1.811023 -1.811072
166.500000 -1.811022 -1.811072
166.550000 -1.811022 -1.811072
166.600000 -1.811024 -1.811072
166.650000 -1.811027 -1.811072
166.700000 -1.811031 -1.811072
166.750000 -1.811036 -1.811072
166.800000 -1.811042 -1.811072
166.850000 -1.811049 -1.811072
166.900000 -1.811056 -1.811072
166.950000 -1.811064 -1.811072
167.000000 -1.811071 -1.811072
167.050000 -1.811079 -1.811072
167.100000 -1.811087 -1.811072
167.150000 -1.811094 -1.811072
167.200000 -1.811100 -1.811072
167.250000 -1.811106 -1.811072
167.300000 -1.811111 -1.811072
167.350000 -1.811114 -1.811072
167.400000 -1.811117 -1.811072
167.450000 -1.811118 -1.811072
167.500000 -1.811119 -1.811072
167.550000 -1.811118 -1.811072
167.600000 -1.811116 -1.811072
167.650000 -1.811112 -1.811072
167.700000 -1.811108 -1.811072
167.750000 -1.811103 -1.811072
167.800000 -1.811097 -1.811072
167.850000 -1.811091 -1.811072
167.900000 -1.811084 -1.811072
167.950000 -1.811076 -1.811072
168.000000 -1.811069 -1.811072
168.050000 -1.811062 -1.811072
168.100000 -1.811055 -1.811072
168.150000 -1.811049 -1.811072
168.200000 -1.811043 -1.811072
168.250000 -1.811038 -1.811072
168.300000 -1.811034 -1.811072
168.350000 -1.811031 -1.811072
168.400000 -1.811029 -1.811072
168.450000 -1.811028 -1.811072
168.500000 -1.811028 -1.811072
168.550000 -1.811029 -1.811072
168.600000 -1.811032 -1.811072
168.650000 -1.811035 -1.811072
168.700000 -1.811040 -1.811072
168.750000 -1.811045 -1.811072
168.800000 -1.811051 -1.811072
168.850000 -1.811057 -1.811072
168.900000 -1.811063 -1.811072
168.950000 -1.811070 -1.811072
169.000000 -1.811077 -1.811072
169.050000 -1.811084 -1.811072
169.100000 -1.811090 -1.811072
169.150000 -1.811096 -1.811072
169.200000 -1.811101 -1.811072
169.250000 -1.811105 -1.811072
169.300000 -1.811109 -1.811072
169.350000 -1.811111 -1.811072
169.400000 -1.811113 -1.811072
169.450000 -1.811113 -1.811072
169.500000 -1.811112 -1.811072
169.550000 -1.811111 -1.811072
169.600000 -1.811108 -1.811072
169.650000 -1.811104 -1.811072
169.700000 -1.811100 -1.811072
169.750000 -1.811095 -1.811072
169.800000 -1.811089 -1.811072
169.850000 -1.811083 -1.811072
169.900000 -1.811077 -1.811072
169.950000 -1.811071 -1.811072
170.000000 -1.811064 -1.811072
170.050000 -1.811058 -1.811072
170.100000 -1.811053 -1.811072
170.150000 -1.811047 -1.811072
170.200000 -1.811043 -1.811072
170.250000 -1.811039 -1.811072
170.300000 -1.811036 -1.811072
170.350000 -1.811034 -1.811072
170.400000 -1.811033 -1.811072
170.450000 -1.811033 -1.811072
170.500000 -1.811034 -1.811072
170.550000 -1.811036 -1.811072
170.600000 -1.811039 -1.811072
170.650000 -1.811043 -1.811072
170.700000 -1.811047 -1.811072
170.750000 -1.811052 -1.811072
170.800000 -1.811058 -1.811072
170.850000 -1.811063 -1.811072
170.900000 -1.811069 -1.811072
170.950000 -1.811075 -1.811072
171.000000 -1.811081 -1.811072
171.050000 -1.811087 -1.811072
171.100000 -1.811092 -1.811072
171.150000 -1.811097 -1.811072
171.200000 -1.811100 -1.811072
171.250000 -1.811104 -1.811072
171.300000 -1.811106 -1.811072
171.350000 -1.811107 -1.811072
171.400000 -1.811108 -1.811072
171.450000 -1.811108 -1.811072
171.500000 -1.811106 -1.811072
171.550000 -1.811104 -1.811072
171.600000 -1.811101 -1.811072
171.650000 -1.811097 -1.811072
171.700000 -1.811093 -1.811072
171.750000 -1.811088 -1.811072
171.800000 -1.811083 -1.811072
171.850000 -1.811077 -1.811072
171.900000 -1.811072 -1.811072
171.950000 -1.811066 -1.811072
172.000000 -1.811061 -1.811072
172.050000 -1.811056 -1.811072
172.100000 -1.811051 -1.811072
172.150000 -1.811047 -1.811072
172.200000 -1.811044 -1.811072
172.250000 -1.811041 -1.811072
172.300000 -1.811039 -1.811072
172.350000 -1.811038 -1.811072
172.400000 -1.811038 -1.811072
172.450000 -1.811039 -1.811072
172.500000 -1.811040 -1.811072
172.550000 -1.811043 -1.811072
172.600000 -1.811046 -1.811072
172.650000 -1.811049 -1.811072
172.700000 -1.811054 -1.811072
172.750000 -1.811058 -1.811072
172.800000 -1.811064 -1.811072
172.850000 -1.811069 -1.811072
172.900000 -1.811074 -1.811072
172.950000 -1.811079 -1.811072
173.000000 -1.811084 -1.811072
173.050000 -1.811089 -1.811072
173.100000 -1.811093 -1.811072
173.150000 -1.811096 -1.811072
173.200000 -1.811099 -1.811072
173.250000 -1.811102 -1.811072
173.300000 -1.811103 -1.811072
173.350000 -1.811104 -1.811072
173.400000 -1.811103 -1.811072
173.450000 -1.811102 -1.811072
173.500000 -1.811101 -1.811072
173.550000 -1.811098 -1.811072
173.600000 -1.811095 -1.811072
173.650000 -1.811091 -1.811072
173.700000 -1.811087 -1.811072
173.750000 -1.811082 -1.811072
173.800000 -1.811078 -1.811072
173.850000 -1.811073 -1.811072
173.900000 -1.811068 -1.811072
173.950000 -1.811063 -1.811072
174.000000 -1.811058 -1.811072
174.050000 -1.811054 -1.811072
174.100000 -1.811051 -1.811072
174.150000 -1.811048 -1.811072
174.200000 -1.811045 -1.811072
174.250000 -1.811043 -1.811072
174.300000 -1.811042 -1.811072
174.350000 -1.811042 -1.811072
174.400000 -1.811043 -1.811072
174.450000 -1.811044 -1.811072
174.500000 -1.811046 -1.811072
174.550000 -1.811048 -1.811072
174.600000 -1.811052 -1.811072
174.650000 -1.811055 -1.811072
174.700000 -1.811059 -1.811072
174.750000 -1.811064 -1.811072
174.800000 -1.811068 -1.811072
174.850000 -1.811073 -1.811072
174.900000 -1.811077 -1.811072
174.950000 -1.811082 -1.811072
175.000000 -1.811086 -1.811072
175.050000 -1.811090 -1.811072
175.100000 -1.811093 -1.811072
175.150000 -1.811096 -1.811072
175.200000 -1.811098 -1.811072
175.250000 -1.811099 -1.811072
175.300000 -1.811100 -1.811072
175.350000 -1.811100 -1.811072
175.400000 -1.811099 -1.811072
175.450000 -1.811097 -1.811072
175.500000 -1.811095 -1.811072
175.550000 -1.811093 -1.811072
175.600000 -1.811089 -1.811072
175.650000 -1.811086 -1.811072
175.700000 -1.811082 -1.811072
175.750000 -1.811078 -1.811072
175.800000 -1.811073 -1.811072
175.850000 -1.811069 -1.811072
175.900000 -1.811065 -1.811072
175.950000 -1.811061 -1.811072
176.000000 -1.811057 -1.811072
176.050000 -1.811054 -1.811072
176.100000 -1.811051 -1.811072
176.150000 -1.811049 -1.811072
176.200000 -1.811047 -1.811072
176.250000 -1.811046 -1.811072
176.300000 -1.811046 -1.811072
176.350000 -1.811046 -1.811072
176.400000 -1.811047 -1.811072
176.450000 -1.811049 -1.811072
176.500000 -1.811051 -1.811072
176.550000 -1.811053 -1.811072
176.600000 -1.811057 -1.811072
176.650000 -1.811060 -1.811072
176.700000 -1.811064 -1.811072
176.750000 -1.811068 -1.811072
176.800000 -1.811072 -1.811072
176.850000 -1.811076 -1.811072
176.900000 -1.811080 -1.811072
176.950000 -1.811084 -1.811072
177.000000 -1.811087 -1.811072
177.050000 -1.811090 -1.811072
177.100000 -1.811092 -1.811072
177.150000 -1.811094 -1.811072
177.200000 -1.811096 -1.811072
177.250000 -1.811096 -1.811072
177.300000 -1.811096 -1.811072
177.350000 -1.811096 -1.811072
177.400000 -1.811095 -1.811072
177.450000 -1.811093 -1.811072
177.500000 -1.811091 -1.811072
177.550000 -1.811088 -1.811072
177.600000 -1.811085 -1.811072
177.650000 -1.811081 -1.811072
177.700000 -1.811078 -1.811072
177.750000 -1.811074 -1.811072
177.800000 -1.811070 -1.811072
177.850000 -1.811066 -1.811072
177.900000 -1.811063 -1.811072
177.950000 -1.811059 -1.811072
178.000000 -1.811056 -1.811072
178.050000 -1.811054 -1.811072
178.100000 -1.811052 -1.811072
178.150000 -1.811050 -1.811072
178.200000 -1.811049 -1.811072
178.250000 -1.811049 -1.811072
178.300000 -1.811049 -1.811072
178.350000 -1.811050 -1.811072
178.400000 -1.811051 -1.811072
178.450000 -1.811053 -1.811072
178.500000 -1.811055 -1.811072
178.550000 -1.811058 -1.811072
178.600000 -1.811061 -1.811072
178.650000 -1.811064 -1.811072
178.700000 -1.811068 -1.811072
178.750000 -1.811071 -1.811072
178.800000 -1.811075 -1.811072
178.850000 -1.811078 -1.811072
178.900000 -1.811082 -1.811072
178.950000 -1.811085 -1.811072
179.000000 -1.811087 -1.811072
179.050000 -1.811090 -1.811072
179.100000 -1.811091 -1.811072
179.150000 -1.811092 -1.811072
179.200000 -1.811093 -1.811072
179.250000 -1.811093 -1.811072
179.300000 -1.811093 -1.811072
179.350000 -1.811092 -1.811072
179.400000 -1.811091 -1.811072
179.450000 -1.811089 -1.811072
179.500000 -1.811086 -1.811072
179.550000 -1.811084 -1.811072
179.600000 -1.811081 -1.811072
179.650000 -1.811077 -1.811072
179.700000 -1.811074 -1.811072
179.750000 -1.811071 -1.811072
179.800000 -1.811068 -1.811072
179.850000 -1.811064 -1.811072
179.900000 -1.811061 -1.811072
179.950000 -1.811059 -1.811072
180.000000 -1.811056 -1.811072
180.050000 -1.811055 -1.811072
180.100000 -1.811053 -1.811072
180.150000 -1.811052 -1.811072
180.200000 -1.811052 -1.811072
180.250000 -1.811052 -1.811072
180.300000 -1.811052 -1.811072
180.350000 -1.811053 -1.811072
180.400000 -1.811055 -1.811072
180.450000 -1.811057 -1.811072
180.500000 -1.811059 -1.811072
180.550000 -1.811062 -1.811072
180.600000 -1.811065 -1.811072
180.650000 -1.811068 -1.811072
180.700000 -1.811071 -1.811072
180.750000 -1.811074 -1.811072
180.800000 -1.811077 -1.811072
180.850000 -1.811080 -1.811072
180.900000 -1.811083 -1.811072
180.950000 -1.811085 -1.811072
181.000000 -1.811087 -1.811072
181.050000 -1.811089 -1.811072
181.100000 -1.811090 -1.811072
181.150000 -1.811091 -1.811072
181.200000 -1.811091 -1.811072
181.250000 -1.811090 -1.811072
181.300000 -1.811090 -1.811072
181.350000 -1.811089 -1.811072
181.400000 -1.811087 -1.811072
181.450000 -1.811085 -1.811072
181.500000 -1.811083 -1.811072
181.550000 -1.811080 -1.811072
181.600000 -1.811077 -1.811072
181.650000 -1.811074 -1.811072
181.700000 -1.811071 -1.811072
181.750000 -1.811069 -1.811072
181.800000 -1.811066 -1.811072
181.850000 -1.811063 -1.811072
181.900000 -1.811061 -1.811072
181.950000 -1.811059 -1.811072
182.000000 -1.811057 -1.811072
182.050000 -1.811056 -1.811072
182.100000 -1.811055 -1.811072
182.150000 -1.811054 -1.811072
182.200000 -1.811054 -1.811072
182.250000 -1.811055 -1.811072
182.300000 -1.811055 -1.811072
182.350000 -1.811057 -1.811072
182.400000 -1.811058 -1.811072
182.450000 -1.811060 -1.811072
182.500000 -1.811063 -1.811072
182.550000 -1.811065 -1.811072
182.600000 -1.811068 -1.811072
182.650000 -1.811071 -1.811072
182.700000 -1.811073 -1.811072
182.750000 -1.811076 -1.811072
182.800000 -1.811079 -1.811072
182.850000 -1.811081 -1.811072
182.900000 -1.811083 -1.811072
182.950000 -1.811085 -1.811072
183.000000 -1.811086 -1.811072
183.050000 -1.811087 -1.811072
183.100000 -1.811088 -1.811072
183.150000 -1.811088 -1.811072
183.200000 -1.811088 -1.811072
183.250000 -1.811088 -1.811072
183.300000 -1.811087 -1.811072
183.350000 -1.811085 -1.811072
183.400000 -1.811084 -1.811072
183.450000 -1.811082 -1.811072
183.500000 -1.811079 -1.811072
183.550000 -1.811077 -1.811072
183.600000 -1.811075 -1.811072
183.650000 -1.811072 -1.811072
183.700000 -1.811069 -1.811072
183.750000 -1.811067 -1.811072
183.800000 -1.811065 -1.811072
183.850000 -1.811062 -1.811072
183.900000 -1.811061 -1.811072
183.950000 -1.811059 -1.811072
184.000000 -1.811058 -1.811072
184.050000 -1.811057 -1.811072
184.100000 -1.811056 -1.811072
184.150000 -1.811056 -1.811072
184.200000 -1.811057 -1.811072
184.250000 -1.811057 -1.811072
184.300000 -1.811058 -1.811072
184.350000 -1.811060 -1.811072
184.400000 -1.811061 -1.811072
184.450000 -1.811063 -1.811072
184.500000 -1.811066 -1.811072
184.550000 -1.811068 -1.811072
184.600000 -1.811070 -1.811072
184.650000 -1.811073 -1.811072
184.700000 -1.811075 -1.811072
184.750000 -1.811077 -1.811072
184.800000 -1.811079 -1.811072
184.850000 -1.811081 -1.811072
184.900000 -1.811083 -1.811072
184.950000 -1.811084 -1.811072
185.000000 -1.811085 -1.811072
185.050000 -1.811086 -1.811072
185.100000 -1.811086 -1.811072
185.150000 -1.811086 -1.811072
185.200000 -1.811086 -1.811072
185.250000 -1.811085 -1.811072
185.300000 -1.811084 -1.811072
185.350000 -1.811083 -1.811072
185.400000 -1.811081 -1.811072
185.450000 -1.811079 -1.811072
185.500000 -1.811077 -1.811072
185.550000 -1.811075 -1.811072
185.600000 -1.811072 -1.811072
185.650000 -1.811070 -1.811072
185.700000 -1.811068 -1.811072
185.750000 -1.811066 -1.811072
185.800000 -1.811064 -1.811072
185.850000 -1.811062 -1.811072
185.900000 -1.811061 -1.811072
185.950000 -1.811060 -1.811072
186.000000 -1.811059 -1.811072
186.050000 -1.811058 -1.811072
186.100000 -1.811058 -1.811072
186.150000 -1.811058 -1.811072
186.200000 -1.811059 -1.811072
186.250000 -1.811060 -1.811072
186.300000 -1.811061 -1.811072
186.350000 -1.811062 -1.811072
186.400000 -1.811064 -1.811072
186.450000 -1.811066 -1.811072
186.500000 -1.811068 -1.811072
186.550000 -1.811070 -1.811072
186.600000 -1.811072 -1.811072
186.650000 -1.811074 -1.811072
186.700000 -1.811076 -1.811072
186.750000 -1.811078 -1.811072
186.800000 -1.811080 -1.811072
186.850000 -1.811081 -1.811072
186.900000 -1.811083 -1.811072
186.950000 -1.811084 -1.811072
187.000000 -1.811084 -1.811072
