time[ns] Raw_signal[mV]
-11.200000 -0.185135
-11.150000 -0.102915
-11.100000 -0.003562
-11.050000 0.106065
-11.000000 0.215695
-10.950000 0.301341
-10.900000 0.363007
-10.850000 0.400692
-10.800000 0.376710
-10.750000 0.297915
-10.700000 0.212268
-10.650000 0.126622
-10.600000 -0.000138
-10.550000 -0.161154
-10.500000 -0.305042
-10.450000 -0.390688
-10.400000 -0.438650
-10.350000 -0.455781
-10.300000 -0.445503
-10.250000 -0.390688
-10.200000 -0.284487
-10.150000 -0.168005
-10.100000 -0.072080
-10.050000 0.006715
-10.000000 0.064954
-9.950000 0.075233
-9.900000 0.027270
-9.850000 -0.051525
-9.800000 -0.140598
-9.750000 -0.246801
-9.700000 -0.349577
-9.650000 -0.421521
-9.600000 -0.455781
-9.550000 -0.442077
-9.500000 -0.380412
-9.450000 -0.250227
-9.400000 -0.072081
-9.350000 0.119768
-9.300000 0.301341
-9.250000 0.458933
-9.200000 0.585690
-9.150000 0.671338
-9.100000 0.688468
-9.050000 0.595968
-9.000000 0.428100
-8.950000 0.249953
-8.900000 0.088936
-8.850000 -0.065228
-8.800000 -0.198839
-8.750000 -0.284486
-8.700000 -0.301615
-8.650000 -0.219393
-8.600000 -0.065229
-8.550000 0.119768
-8.500000 0.325322
-8.450000 0.554857
-8.400000 0.760410
-8.350000 0.894021
-8.300000 0.952260
-8.250000 0.955687
-8.200000 0.914575
-8.150000 0.822077
-8.100000 0.674763
-8.050000 0.517172
-8.000000 0.369858
-7.950000 0.253378
-7.900000 0.191712
-7.850000 0.188287
-7.800000 0.212268
-7.750000 0.249953
-7.700000 0.328748
-7.650000 0.428100
-7.600000 0.476061
-7.550000 0.479489
-7.500000 0.472635
-7.450000 0.421247
-7.400000 0.273934
-7.350000 0.095788
-7.300000 -0.065230
-7.250000 -0.233098
-7.200000 -0.414670
-7.150000 -0.568836
-7.100000 -0.678464
-7.050000 -0.753833
-7.000000 -0.781241
-6.950000 -0.757259
-6.900000 -0.685314
-6.850000 -0.582538
-6.800000 -0.466058
-6.750000 -0.370134
-6.700000 -0.301616
-6.650000 -0.229671
-6.600000 -0.147450
-6.550000 -0.096063
-6.500000 -0.068654
-6.450000 -0.024118
-6.400000 0.030695
-6.350000 0.085511
-6.300000 0.136898
-6.250000 0.184860
-6.200000 0.219119
-6.150000 0.243101
-6.100000 0.256804
-6.050000 0.256804
-6.000000 0.246527
-5.950000 0.229397
-5.900000 0.201991
-5.850000 0.167732
-5.800000 0.136898
-5.750000 0.112917
-5.700000 0.092362
-5.650000 0.075232
-5.600000 0.071806
-5.550000 0.088936
-5.500000 0.082084
-5.450000 0.037548
-5.400000 -0.000137
-5.350000 -0.024118
-5.300000 -0.082357
-5.250000 -0.157728
-5.200000 -0.181710
-5.150000 -0.181709
-5.100000 -0.209117
-5.050000 -0.191987
-5.000000 -0.106339
-4.950000 -0.017267
-4.900000 0.078659
-4.850000 0.215694
-4.800000 0.356156
-4.750000 0.448655
-4.700000 0.524024
-4.650000 0.571987
-4.600000 0.571986
-4.550000 0.544579
-4.500000 0.486340
-4.450000 0.376711
-4.400000 0.246527
-4.350000 0.147175
-4.300000 0.058103
-4.250000 -0.003563
-4.200000 0.003289
-4.150000 0.064954
-4.100000 0.136898
-4.050000 0.253378
-4.000000 0.410969
-3.950000 0.534301
-3.900000 0.619949
-3.850000 0.688467
-3.800000 0.715874
-3.750000 0.685041
-3.700000 0.606246
-3.650000 0.482913
-3.600000 0.332173
-3.550000 0.201991
-3.500000 0.092363
-3.450000 0.010140
-3.400000 -0.013841
-3.350000 -0.051525
-3.300000 -0.140598
-3.250000 -0.109765
-3.200000 0.106065
-3.150000 0.249953
-3.100000 0.267083
-3.050000 0.414395
-3.000000 0.681614
-2.950000 0.791244
-2.900000 0.801521
-2.850000 0.856335
-2.800000 0.842631
-2.750000 0.825502
-2.700000 0.979668
-2.650000 1.068741
-2.600000 0.914575
-2.550000 0.863188
-2.500000 0.983094
-2.450000 0.870038
-2.400000 0.630226
-2.350000 0.640504
-2.300000 0.674763
-2.250000 0.486339
-2.200000 0.421248
-2.150000 0.602820
-2.100000 0.657633
-2.050000 0.534301
-2.000000 0.517172
-1.950000 0.633653
-1.900000 0.780966
-1.850000 0.924854
-1.800000 0.935131
-1.750000 0.787819
-1.700000 0.719300
-1.650000 0.715875
-1.600000 0.537727
-1.550000 0.304766
-1.500000 0.297915
-1.450000 0.359581
-1.400000 0.284212
-1.350000 0.239676
-1.300000 0.267083
-1.250000 0.263657
-1.200000 0.386988
-1.150000 0.691893
-1.100000 0.784392
-1.050000 0.633653
-1.000000 0.705596
-0.950000 0.955687
-0.900000 0.962537
-0.850000 0.835781
-0.800000 0.852910
-0.750000 0.777541
-0.700000 0.496618
-0.650000 0.297915
-0.600000 0.208842
-0.550000 -0.000136
-0.500000 -0.229673
-0.450000 -0.281059
-0.400000 -0.253654
-0.350000 -0.281059
-0.300000 -0.274208
-0.250000 -0.188561
-0.200000 -0.089210
-0.150000 0.006715
-0.100000 0.119768
-0.050000 0.249953
0.000000 0.380137
0.050000 0.421248
0.100000 0.352731
0.150000 0.339027
0.200000 0.397266
0.250000 0.328748
0.300000 0.123195
0.350000 0.064954
0.400000 0.160879
0.450000 0.174583
0.500000 0.143751
0.550000 0.225971
0.600000 0.328748
0.650000 0.345877
0.700000 0.424674
0.750000 0.643930
0.800000 0.941983
0.850000 1.342812
0.900000 2.000584
0.950000 2.932425
1.000000 4.172597
1.050000 5.878690
1.100000 8.119218
1.150000 10.856507
1.200000 14.128234
1.250000 17.975509
1.300000 22.271577
1.350000 26.821157
1.400000 31.542028
1.450000 36.386241
1.500000 41.274986
1.550000 46.074655
1.600000 50.689327
1.650000 55.067619
1.700000 59.154710
1.750000 62.851240
1.800000 66.102410
1.850000 68.969879
1.900000 71.443380
1.950000 73.437249
2.000000 74.900100
2.050000 75.873049
2.100000 76.366379
2.150000 76.328699
2.200000 75.739440
2.250000 74.595189
2.300000 72.961050
2.350000 70.891809
2.400000 68.435449
2.450000 65.615939
2.500000 62.512080
2.550000 59.195820
2.600000 55.687710
2.650000 52.117929
2.700000 48.592689
2.750000 45.036610
2.800000 41.456560
2.850000 38.082059
2.900000 35.033020
2.950000 32.234060
3.000000 29.767430
3.050000 27.787260
3.100000 26.218201
3.150000 25.008861
3.200000 24.285998
3.250000 24.015354
3.300000 24.015357
3.350000 24.262016
3.400000 24.827292
3.450000 25.608389
3.500000 26.447738
3.550000 27.304210
3.600000 28.184665
3.650000 29.017151
3.700000 29.750298
3.750000 30.366954
3.800000 30.877408
3.850000 31.209723
3.900000 31.315930
3.950000 31.254256
4.000000 31.052129
4.050000 30.644450
4.100000 29.979819
4.150000 29.133630
4.200000 28.177800
4.250000 27.043840
4.300000 25.721440
4.350000 24.309979
4.400000 22.874539
4.450000 21.377413
4.500000 19.825492
4.550000 18.300966
4.600000 16.841544
4.650000 15.440347
4.700000 14.107678
4.750000 12.881210
4.800000 11.812333
4.850000 10.914748
4.900000 10.191886
4.950000 9.643743
5.000000 9.273747
5.050000 9.081898
5.100000 9.054491
5.150000 9.222361
5.200000 9.582074
5.250000 10.048001
5.300000 10.558459
5.350000 11.106602
5.400000 11.671875
5.450000 12.206305
5.500000 12.685933
5.550000 13.090192
5.600000 13.401947
5.650000 13.621201
5.700000 13.727407
5.750000 13.703421
5.800000 13.600649
5.850000 13.436207
5.900000 13.179262
5.950000 12.840097
6.000000 12.456403
6.050000 12.011029
6.100000 11.497147
6.150000 10.976415
6.200000 10.424847
6.250000 9.815037
6.300000 9.201803
6.350000 8.646809
6.400000 8.102093
6.450000 7.547099
6.500000 7.019512
6.550000 6.529609
6.600000 6.063688
6.650000 5.618323
6.700000 5.210642
6.750000 4.868053
6.800000 4.576853
6.850000 4.289078
6.900000 4.049265
6.950000 3.949915
7.000000 3.953339
7.050000 4.004728
7.100000 4.138338
7.150000 4.385003
7.200000 4.693333
7.250000 5.032495
7.300000 5.409344
7.350000 5.769061
7.400000 6.104800
7.450000 6.416555
7.500000 6.676922
7.550000 6.831087
7.600000 6.909884
7.650000 6.920160
7.700000 6.841366
7.750000 6.700905
7.800000 6.519331
7.850000 6.276093
7.900000 5.988320
7.950000 5.686840
8.000000 5.333973
8.050000 4.936571
8.100000 4.525463
8.150000 4.097227
8.200000 3.648436
8.250000 3.216774
8.300000 2.815945
8.350000 2.418541
8.400000 2.065674
8.450000 1.798456
8.500000 1.562068
8.550000 1.339386
8.600000 1.188648
8.650000 1.085871
8.700000 1.010500
8.750000 1.003648
8.800000 1.068741
8.850000 1.140685
8.900000 1.209203
8.950000 1.308552
9.000000 1.428460
9.050000 1.565495
9.100000 1.753918
9.150000 1.945769
9.200000 2.089656
9.250000 2.216414
9.300000 2.339745
9.350000 2.411689
9.400000 2.432246
9.450000 2.469930
9.500000 2.473356
9.550000 2.394559
9.600000 2.302060
9.650000 2.230117
9.700000 2.127340
9.750000 1.980028
9.800000 1.815584
9.850000 1.647717
9.900000 1.472996
9.950000 1.308554
10.000000 1.126982
10.050000 0.914575
10.100000 0.698744
10.150000 0.513747
10.200000 0.349305
10.250000 0.201991
10.300000 0.082085
10.350000 0.003289
10.400000 -0.030969
10.450000 -0.044674
10.500000 -0.051525
10.550000 -0.030971
10.600000 0.006714
10.650000 0.058103
10.700000 0.119769
10.750000 0.178008
10.800000 0.253378
10.850000 0.366433
10.900000 0.482913
10.950000 0.599393
11.000000 0.736429
11.050000 0.880317
11.100000 0.996798
11.150000 1.113278
11.200000 1.240035
11.250000 1.315405
11.300000 1.342812
11.350000 1.363368
11.400000 1.325682
11.450000 1.188646
11.500000 1.010500
11.550000 0.822076
11.600000 0.592541
11.650000 0.311619
11.700000 0.023843
11.750000 -0.239950
11.800000 -0.469485
11.850000 -0.664759
11.900000 -0.818925
11.950000 -0.884017
12.000000 -0.853184
12.050000 -0.805221
12.100000 -0.757259
12.150000 -0.633926
12.200000 -0.462632
12.250000 -0.308467
12.300000 -0.164580
12.350000 -0.024118
12.400000 0.047825
12.450000 0.068380
12.500000 0.082085
12.550000 0.078659
12.600000 0.040974
12.650000 0.016993
12.700000 0.030697
12.750000 0.058103
12.800000 0.088935
12.850000 0.112916
12.900000 0.143751
12.950000 0.188286
13.000000 0.215693
13.050000 0.205417
13.100000 0.160879
13.150000 0.078659
13.200000 -0.041248
13.250000 -0.164580
13.300000 -0.263930
13.350000 -0.353003
13.400000 -0.435224
13.450000 -0.490040
13.500000 -0.524299
13.550000 -0.544855
13.600000 -0.514020
13.650000 -0.452355
13.700000 -0.421521
13.750000 -0.424947
13.800000 -0.400966
13.850000 -0.376985
13.900000 -0.400966
13.950000 -0.462632
14.000000 -0.548280
14.050000 -0.678463
14.100000 -0.812073
14.150000 -0.928553
14.200000 -1.038183
14.250000 -1.130680
14.300000 -1.212901
14.350000 -1.288272
14.400000 -1.336235
14.450000 -1.329382
14.500000 -1.312253
14.550000 -1.305401
14.600000 -1.260865
14.650000 -1.188921
14.700000 -1.151236
14.750000 -1.086144
14.800000 -0.993646
14.850000 -0.938832
14.900000 -0.911424
14.950000 -0.870313
15.000000 -0.849758
15.050000 -0.877165
15.100000 -0.907998
15.150000 -0.925128
15.200000 -0.952534
15.250000 -0.979941
15.300000 -0.997071
15.350000 -1.014200
15.400000 -1.014201
15.450000 -0.976516
15.500000 -0.959387
15.550000 -0.962813
15.600000 -0.928554
15.650000 -0.894295
15.700000 -0.949109
15.750000 -1.024478
15.800000 -1.065589
15.850000 -1.113551
15.900000 -1.185494
15.950000 -1.240309
16.000000 -1.288271
16.050000 -1.336234
16.100000 -1.343085
16.150000 -1.315679
16.200000 -1.295124
16.250000 -1.267717
16.300000 -1.206050
16.350000 -1.123829
16.400000 -1.048460
16.450000 -0.973090
16.500000 -0.911424
16.550000 -0.870312
16.600000 -0.822350
16.650000 -0.784665
16.700000 -0.760684
16.750000 -0.740129
16.800000 -0.712722
16.850000 -0.716148
16.900000 -0.743555
16.950000 -0.740129
17.000000 -0.719574
17.050000 -0.757259
17.100000 -0.825776
17.150000 -0.842906
17.200000 -0.829202
17.250000 -0.856609
17.300000 -0.918275
17.350000 -0.962813
17.400000 -1.000498
17.450000 -1.062162
17.500000 -1.120403
17.550000 -1.168365
17.600000 -1.212902
17.650000 -1.250586
17.700000 -1.260865
17.750000 -1.243734
17.800000 -1.206049
17.850000 -1.144385
17.900000 -1.048459
17.950000 -0.928554
18.000000 -0.818925
18.050000 -0.740129
18.100000 -0.699018
18.150000 -0.692168
18.200000 -0.723000
18.250000 -0.788092
18.300000 -0.894295
18.350000 -1.031329
18.400000 -1.168367
18.450000 -1.295124
18.500000 -1.428734
18.550000 -1.538361
18.600000 -1.593177
18.650000 -1.637713
18.700000 -1.699379
18.750000 -1.706230
18.800000 -1.644564
18.850000 -1.610306
18.900000 -1.620582
18.950000 -1.627435
19.000000 -1.641139
19.050000 -1.678824
19.100000 -1.713083
19.150000 -1.740489
19.200000 -1.785025
19.250000 -1.822710
19.300000 -1.836414
19.350000 -1.839839
19.400000 -1.836414
19.450000 -1.788452
19.500000 -1.709657
19.550000 -1.627434
19.600000 -1.534936
19.650000 -1.432158
19.700000 -1.356789
19.750000 -1.325956
19.800000 -1.312253
19.850000 -1.308826
19.900000 -1.322531
19.950000 -1.332809
20.000000 -1.319106
20.050000 -1.312252
20.100000 -1.322530
20.150000 -1.291698
20.200000 -1.219755
20.250000 -1.127255
20.300000 -1.038182
20.350000 -0.921701
20.400000 -0.794945
20.450000 -0.716149
20.500000 -0.664760
20.550000 -0.603094
20.600000 -0.555130
20.650000 -0.589391
20.700000 -0.685315
20.750000 -0.781240
20.800000 -0.870313
20.850000 -0.969664
20.900000 -1.075866
20.950000 -1.164940
21.000000 -1.240308
21.050000 -1.291697
21.100000 -1.325957
21.150000 -1.332809
21.200000 -1.322530
21.250000 -1.308827
21.300000 -1.277994
21.350000 -1.206050
21.400000 -1.116978
21.450000 -1.045035
21.500000 -1.000496
21.550000 -0.955961
21.600000 -0.907999
21.650000 -0.884016
21.700000 -0.884017
21.750000 -0.914850
21.800000 -0.966238
21.850000 -1.034755
21.900000 -1.120403
21.950000 -1.240310
22.000000 -1.363642
22.050000 -1.469843
22.100000 -1.569195
22.150000 -1.644564
22.200000 -1.651415
22.250000 -1.613731
22.300000 -1.555492
22.350000 -1.459566
22.400000 -1.319104
22.450000 -1.188921
22.500000 -1.065589
22.550000 -0.921701
22.600000 -0.808646
22.650000 -0.746980
22.700000 -0.733277
22.750000 -0.757259
22.800000 -0.805222
22.850000 -0.870313
22.900000 -0.938830
22.950000 -0.983367
23.000000 -1.007348
23.050000 -1.048460
23.100000 -1.079292
23.150000 -1.065589
23.200000 -1.038181
23.250000 -1.027904
23.300000 -1.021052
23.350000 -1.027904
23.400000 -1.045033
23.450000 -1.065589
23.500000 -1.092996
23.550000 -1.134108
23.600000 -1.158088
23.650000 -1.154662
23.700000 -1.130681
23.750000 -1.086145
23.800000 -1.027904
23.850000 -0.962812
23.900000 -0.897720
23.950000 -0.839480
24.000000 -0.812073
24.050000 -0.825777
24.100000 -0.863462
24.150000 -0.928554
24.200000 -1.010775
24.250000 -1.110125
24.300000 -1.202624
24.350000 -1.243735
24.400000 -1.226605
24.450000 -1.209476
24.500000 -1.206050
24.550000 -1.182069
24.600000 -1.147810
24.650000 -1.130681
24.700000 -1.099847
24.750000 -1.075867
24.800000 -1.110126
24.850000 -1.188921
24.900000 -1.236884
24.950000 -1.277994
25.000000 -1.329382
25.050000 -1.339659
25.100000 -1.319104
25.150000 -1.295124
25.200000 -1.250587
25.250000 -1.192348
25.300000 -1.161515
25.350000 -1.140959
25.400000 -1.130681
25.450000 -1.178643
25.500000 -1.271141
25.550000 -1.353364
25.600000 -1.435586
25.650000 -1.538362
25.700000 -1.620583
25.750000 -1.651416
25.800000 -1.620582
25.850000 -1.528085
25.900000 -1.394474
25.950000 -1.250587
26.000000 -1.092996
26.050000 -0.938831
26.100000 -0.822352
26.150000 -0.770962
26.200000 -0.777815
26.250000 -0.866888
26.300000 -1.045033
26.350000 -1.250586
26.400000 -1.445862
26.450000 -1.641138
26.500000 -1.826137
26.550000 -1.963172
26.600000 -2.059098
26.650000 -2.124188
26.700000 -2.124189
26.750000 -2.079652
26.800000 -2.024838
26.850000 -1.942618
26.900000 -1.850117
26.950000 -1.791878
27.000000 -1.761046
27.050000 -1.706230
27.100000 -1.675398
27.150000 -1.678823
27.200000 -1.637713
27.250000 -1.572621
27.300000 -1.552066
27.350000 -1.552065
27.400000 -1.507528
27.450000 -1.442438
27.500000 -1.380771
27.550000 -1.319104
27.600000 -1.264290
27.650000 -1.240309
27.700000 -1.240309
27.750000 -1.257439
27.800000 -1.315680
27.850000 -1.418455
27.900000 -1.517806
27.950000 -1.620583
28.000000 -1.733637
28.050000 -1.819285
28.100000 -1.843266
28.150000 -1.839841
28.200000 -1.829562
28.250000 -1.778174
28.300000 -1.658268
28.350000 -1.510955
28.400000 -1.373920
28.450000 -1.236884
28.500000 -1.110125
28.550000 -1.034755
28.600000 -0.997072
28.650000 -0.997070
28.700000 -1.065588
28.750000 -1.192347
28.800000 -1.308826
28.850000 -1.418456
28.900000 -1.552065
28.950000 -1.668546
29.000000 -1.730211
29.050000 -1.754193
29.100000 -1.750767
29.150000 -1.709657
29.200000 -1.641138
29.250000 -1.565768
29.300000 -1.476697
29.350000 -1.380771
29.400000 -1.305401
29.450000 -1.257438
29.500000 -1.250586
29.550000 -1.264290
29.600000 -1.308828
29.650000 -1.391048
29.700000 -1.490399
29.750000 -1.572620
29.800000 -1.630862
29.850000 -1.695953
29.900000 -1.757619
29.950000 -1.785026
30.000000 -1.791878
30.050000 -1.815858
30.100000 -1.826136
30.150000 -1.812433
30.200000 -1.809007
30.250000 -1.856969
30.300000 -1.901506
30.350000 -1.932339
30.400000 -1.980302
30.450000 -2.035116
30.500000 -2.062522
30.550000 -2.038542
30.600000 -1.956319
30.650000 -1.843266
30.700000 -1.757618
30.750000 -1.668546
30.800000 -1.486974
30.850000 -1.295123
30.900000 -1.212902
30.950000 -1.182070
31.000000 -1.113550
31.050000 -1.075866
31.100000 -1.123830
31.150000 -1.182069
31.200000 -1.223179
31.250000 -1.274568
31.300000 -1.322530
31.350000 -1.332809
31.400000 -1.336235
31.450000 -1.360215
31.500000 -1.380772
31.550000 -1.394475
31.600000 -1.411604
31.650000 -1.435585
31.700000 -1.462992
31.750000 -1.510954
31.800000 -1.555491
31.850000 -1.579472
31.900000 -1.606880
31.950000 -1.620583
32.000000 -1.589750
32.050000 -1.558917
32.100000 -1.548639
32.150000 -1.510956
32.200000 -1.462992
32.250000 -1.456141
32.300000 -1.456140
32.350000 -1.425307
32.400000 -1.404751
32.450000 -1.387623
32.500000 -1.325957
32.550000 -1.254012
32.600000 -1.219755
32.650000 -1.202624
32.700000 -1.164941
32.750000 -1.123830
32.800000 -1.110125
32.850000 -1.154662
32.900000 -1.247161
32.950000 -1.360215
33.000000 -1.473270
33.050000 -1.569195
33.100000 -1.654843
33.150000 -1.723359
33.200000 -1.778174
33.250000 -1.815858
33.300000 -1.809006
33.350000 -1.767896
33.400000 -1.719934
33.450000 -1.678823
33.500000 -1.644564
33.550000 -1.620583
33.600000 -1.613731
33.650000 -1.627436
33.700000 -1.644564
33.750000 -1.658269
33.800000 -1.665119
33.850000 -1.661695
33.900000 -1.637712
33.950000 -1.606881
34.000000 -1.569195
34.050000 -1.504103
34.100000 -1.425307
34.150000 -1.370492
34.200000 -1.356789
34.250000 -1.384197
34.300000 -1.442437
34.350000 -1.521233
34.400000 -1.627435
34.450000 -1.781599
34.500000 -1.949469
34.550000 -2.065948
34.600000 -2.141318
34.650000 -2.206409
34.700000 -2.261225
34.750000 -2.278354
34.800000 -2.250946
34.850000 -2.189282
34.900000 -2.131040
34.950000 -2.059098
35.000000 -1.987153
35.050000 -1.956320
35.100000 -1.956320
35.150000 -1.952894
35.200000 -1.935765
35.250000 -1.925487
35.300000 -1.904932
35.350000 -1.880951
35.400000 -1.867246
35.450000 -1.829562
35.500000 -1.743916
35.550000 -1.637712
35.600000 -1.524659
35.650000 -1.411604
35.700000 -1.312253
35.750000 -1.240309
35.800000 -1.199198
35.850000 -1.168365
35.900000 -1.168365
35.950000 -1.212902
36.000000 -1.281419
36.050000 -1.373919
36.100000 -1.480121
36.150000 -1.572620
36.200000 -1.630861
36.250000 -1.671972
36.300000 -1.702804
36.350000 -1.671971
36.400000 -1.579472
36.450000 -1.483547
36.500000 -1.411603
36.550000 -1.349939
36.600000 -1.305402
36.650000 -1.312253
36.700000 -1.367066
36.750000 -1.445862
36.800000 -1.558917
36.850000 -1.702805
36.900000 -1.850118
36.950000 -1.973450
37.000000 -2.062524
37.050000 -2.127614
37.100000 -2.144744
37.150000 -2.103634
37.200000 -2.014560
37.250000 -1.880950
37.300000 -1.716508
37.350000 -1.534935
37.400000 -1.367066
37.450000 -1.233457
37.500000 -1.151236
37.550000 -1.099848
37.600000 -1.072440
37.650000 -1.096421
37.700000 -1.185494
37.750000 -1.319105
37.800000 -1.462992
37.850000 -1.613731
37.900000 -1.767896
37.950000 -1.911783
38.000000 -2.031689
38.050000 -2.120762
38.100000 -2.189281
38.150000 -2.237244
38.200000 -2.264650
38.250000 -2.264650
38.300000 -2.250946
38.350000 -2.237243
38.400000 -2.213262
38.450000 -2.165299
38.500000 -2.086505
38.550000 -1.994005
38.600000 -1.904931
38.650000 -1.805581
38.700000 -1.689101
38.750000 -1.586323
38.800000 -1.504103
38.850000 -1.425307
38.900000 -1.353363
38.950000 -1.322531
39.000000 -1.343086
39.050000 -1.377345
39.100000 -1.401326
39.150000 -1.418455
39.200000 -1.442437
39.250000 -1.466419
39.300000 -1.459567
39.350000 -1.415029
39.400000 -1.349938
39.450000 -1.274568
39.500000 -1.199199
39.550000 -1.134106
39.600000 -1.072441
39.650000 -1.034755
39.700000 -1.058738
39.750000 -1.130680
39.800000 -1.206049
39.850000 -1.284846
39.900000 -1.370493
39.950000 -1.442437
40.000000 -1.493825
40.050000 -1.534936
40.100000 -1.555491
40.150000 -1.552066
40.200000 -1.517806
40.250000 -1.469843
40.300000 -1.425307
40.350000 -1.391048
40.400000 -1.349938
40.450000 -1.312253
40.500000 -1.298550
40.550000 -1.298550
40.600000 -1.305402
40.650000 -1.319105
40.700000 -1.349938
40.750000 -1.363642
40.800000 -1.339661
40.850000 -1.325956
40.900000 -1.329382
40.950000 -1.312253
41.000000 -1.274568
41.050000 -1.305401
41.100000 -1.387622
41.150000 -1.445863
41.200000 -1.510955
41.250000 -1.647989
41.300000 -1.815859
41.350000 -1.970025
41.400000 -2.134466
41.450000 -2.302335
41.500000 -2.408537
41.550000 -2.470203
41.600000 -2.521592
41.650000 -2.525018
41.700000 -2.470204
41.750000 -2.391408
41.800000 -2.295484
41.850000 -2.172151
41.900000 -2.055671
41.950000 -1.966598
42.000000 -1.891228
42.050000 -1.836413
42.100000 -1.822710
42.150000 -1.829562
42.200000 -1.812432
42.250000 -1.798730
42.300000 -1.819286
42.350000 -1.826136
42.400000 -1.781599
42.450000 -1.730211
42.500000 -1.689100
42.550000 -1.624009
42.600000 -1.528084
42.650000 -1.439011
42.700000 -1.387622
42.750000 -1.353364
42.800000 -1.346511
42.850000 -1.380771
42.900000 -1.452715
42.950000 -1.562344
43.000000 -1.702805
43.050000 -1.846692
43.100000 -1.997432
43.150000 -2.155021
43.200000 -2.268076
43.250000 -2.319465
43.300000 -2.343446
43.350000 -2.333168
43.400000 -2.268076
43.450000 -2.165300
43.500000 -2.062523
43.550000 -1.952894
43.600000 -1.860396
43.650000 -1.805581
43.700000 -1.771323
43.750000 -1.723359
43.800000 -1.678824
43.850000 -1.678823
43.900000 -1.709657
43.950000 -1.713083
44.000000 -1.685675
44.050000 -1.685675
44.100000 -1.706230
44.150000 -1.685674
44.200000 -1.627435
44.250000 -1.596602
44.300000 -1.603453
44.350000 -1.617156
44.400000 -1.620583
44.450000 -1.641139
44.500000 -1.654841
44.550000 -1.661695
44.600000 -1.651416
44.650000 -1.637712
44.700000 -1.634287
44.750000 -1.617157
44.800000 -1.569194
44.850000 -1.531509
44.900000 -1.552066
44.950000 -1.596601
45.000000 -1.624010
45.050000 -1.665121
45.100000 -1.747340
45.150000 -1.798728
45.200000 -1.819285
45.250000 -1.870672
45.300000 -1.949469
45.350000 -1.983727
45.400000 -1.980301
45.450000 -1.997431
45.500000 -2.048820
45.550000 -2.107059
45.600000 -2.134466
45.650000 -2.137892
45.700000 -2.155021
45.750000 -2.158448
45.800000 -2.100208
45.850000 -2.014560
45.900000 -1.942616
45.950000 -1.832988
46.000000 -1.671972
46.050000 -1.524657
46.100000 -1.432158
46.150000 -1.363641
46.200000 -1.312252
46.250000 -1.329383
46.300000 -1.421881
46.350000 -1.541787
46.400000 -1.668546
46.450000 -1.822711
46.500000 -1.973451
46.550000 -2.086504
46.600000 -2.161874
46.650000 -2.220114
46.700000 -2.261225
46.750000 -2.264651
46.800000 -2.216688
46.850000 -2.137892
46.900000 -2.083079
46.950000 -2.052244
47.000000 -2.011135
47.050000 -1.990580
47.100000 -2.024839
47.150000 -2.069375
47.200000 -2.069374
47.250000 -2.069375
47.300000 -2.113912
47.350000 -2.134468
47.400000 -2.103634
47.450000 -2.069375
47.500000 -2.048819
47.550000 -2.000857
47.600000 -1.942616
47.650000 -1.904931
47.700000 -1.863821
47.750000 -1.791878
47.800000 -1.699378
47.850000 -1.630861
47.900000 -1.562342
47.950000 -1.483547
48.000000 -1.397900
48.050000 -1.349938
48.100000 -1.339660
48.150000 -1.332808
48.200000 -1.332808
48.250000 -1.370494
48.300000 -1.445862
48.350000 -1.528085
48.400000 -1.593175
48.450000 -1.647990
48.500000 -1.737063
48.550000 -1.836414
48.600000 -1.887804
48.650000 -1.922061
48.700000 -1.994006
48.750000 -2.055671
48.800000 -2.096782
48.850000 -2.151596
48.900000 -2.192707
48.950000 -2.175578
49.000000 -2.144745
49.050000 -2.120762
49.100000 -2.052244
49.150000 -1.952894
49.200000 -1.856970
49.250000 -1.723360
49.300000 -1.579472
49.350000 -1.473270
49.400000 -1.394474
49.450000 -1.343086
49.500000 -1.367067
49.550000 -1.459566
49.600000 -1.555491
49.650000 -1.678824
49.700000 -1.846691
49.750000 -1.997431
49.800000 -2.100208
49.850000 -2.172152
49.900000 -2.233817
49.950000 -2.261225
50.000000 -2.268076
50.050000 -2.237243
50.100000 -2.196133
50.150000 -2.151595
50.200000 -2.069374
50.250000 -1.928914
50.300000 -1.785026
50.350000 -1.682249
50.400000 -1.572620
50.450000 -1.462992
50.500000 -1.394474
50.550000 -1.343085
50.600000 -1.312253
50.650000 -1.353363
50.700000 -1.452715
50.750000 -1.538361
50.800000 -1.651416
50.850000 -1.802155
50.900000 -1.925488
50.950000 -2.031690
51.000000 -2.141319
51.050000 -2.206411
51.100000 -2.185855
51.150000 -2.144744
51.200000 -2.100207
51.250000 -2.007709
51.300000 -1.891228
51.350000 -1.791877
51.400000 -1.713081
51.450000 -1.658268
51.500000 -1.658268
51.550000 -1.709657
51.600000 -1.774749
51.650000 -1.860395
51.700000 -1.949469
51.750000 -2.014560
51.800000 -2.065950
51.850000 -2.103633
51.900000 -2.124188
51.950000 -2.113912
52.000000 -2.055672
52.050000 -1.949469
52.100000 -1.863821
52.150000 -1.798730
52.200000 -1.709656
52.250000 -1.620582
52.300000 -1.576046
52.350000 -1.558918
52.400000 -1.528085
52.450000 -1.524658
52.500000 -1.534935
52.550000 -1.534936
52.600000 -1.521232
52.650000 -1.486974
52.700000 -1.411603
52.750000 -1.322530
52.800000 -1.233458
52.850000 -1.116977
52.900000 -1.017626
52.950000 -0.962812
53.000000 -0.949109
53.050000 -0.942257
53.100000 -0.969663
53.150000 -1.069014
53.200000 -1.212903
53.250000 -1.367067
53.300000 -1.524658
53.350000 -1.685674
53.400000 -1.839841
53.450000 -1.970024
53.500000 -2.059098
53.550000 -2.096781
53.600000 -2.096781
53.650000 -2.072802
53.700000 -2.021411
53.750000 -1.949469
53.800000 -1.870674
53.850000 -1.785026
53.900000 -1.699379
53.950000 -1.644564
54.000000 -1.610306
54.050000 -1.572620
54.100000 -1.555491
54.150000 -1.569194
54.200000 -1.589750
54.250000 -1.613730
54.300000 -1.675397
54.350000 -1.761044
54.400000 -1.839840
54.450000 -1.904932
54.500000 -1.973450
54.550000 -2.045394
54.600000 -2.117338
54.650000 -2.179003
54.700000 -2.206411
54.750000 -2.196132
54.800000 -2.175577
54.850000 -2.148170
54.900000 -2.100207
54.950000 -2.024838
55.000000 -1.939191
55.050000 -1.863822
55.100000 -1.795303
55.150000 -1.716507
55.200000 -1.620583
55.250000 -1.507528
55.300000 -1.408177
55.350000 -1.312252
55.400000 -1.212901
55.450000 -1.103273
55.500000 -1.010775
55.550000 -0.945684
55.600000 -0.907998
55.650000 -0.928552
55.700000 -1.003922
55.750000 -1.075867
55.800000 -1.140958
55.850000 -1.264291
55.900000 -1.415029
55.950000 -1.510954
56.000000 -1.589751
56.050000 -1.702804
56.100000 -1.805581
56.150000 -1.880950
56.200000 -1.963172
56.250000 -2.059098
56.300000 -2.141318
56.350000 -2.220114
56.400000 -2.312613
56.450000 -2.374279
56.500000 -2.398260
56.550000 -2.391408
56.600000 -2.357149
56.650000 -2.292057
56.700000 -2.192707
56.750000 -2.079652
56.800000 -1.973450
56.850000 -1.880950
56.900000 -1.829561
56.950000 -1.829562
57.000000 -1.860395
57.050000 -1.928912
57.100000 -2.035115
57.150000 -2.131041
57.200000 -2.189281
57.250000 -2.254373
57.300000 -2.319465
57.350000 -2.312613
57.400000 -2.240670
57.450000 -2.158448
57.500000 -2.076226
57.550000 -1.997431
57.600000 -1.946042
57.650000 -1.922061
57.700000 -1.918635
57.750000 -1.939190
57.800000 -1.963173
57.850000 -1.980302
57.900000 -2.000857
57.950000 -1.976875
58.000000 -1.894653
58.050000 -1.798730
58.100000 -1.682249
58.150000 -1.497251
58.200000 -1.274568
58.250000 -1.079292
58.300000 -0.877165
58.350000 -0.678464
58.400000 -0.555130
58.450000 -0.520871
58.500000 -0.551705
58.550000 -0.664760
58.600000 -0.832628
58.650000 -1.024479
58.700000 -1.257438
58.750000 -1.548640
58.800000 -1.809006
58.850000 -2.004283
58.900000 -2.185855
58.950000 -2.319465
59.000000 -2.350297
59.050000 -2.302335
59.100000 -2.202985
59.150000 -2.048820
59.200000 -1.839840
59.250000 -1.603454
59.300000 -1.391048
59.350000 -1.236884
59.400000 -1.147811
59.450000 -1.116977
59.500000 -1.151236
59.550000 -1.257438
59.600000 -1.397899
59.650000 -1.548639
59.700000 -1.716507
59.750000 -1.867247
59.800000 -1.952894
59.850000 -1.997431
59.900000 -2.031690
59.950000 -2.024837
60.000000 -1.963172
60.050000 -1.894654
60.100000 -1.850119
60.150000 -1.798730
60.200000 -1.747341
60.250000 -1.726787
60.300000 -1.737063
60.350000 -1.743914
60.400000 -1.723359
60.450000 -1.682249
60.500000 -1.644564
60.550000 -1.593177
60.600000 -1.497251
60.650000 -1.380771
60.700000 -1.301975
60.750000 -1.250586
60.800000 -1.216329
60.850000 -1.233458
60.900000 -1.288271
60.950000 -1.363641
61.000000 -1.462991
61.050000 -1.582898
61.100000 -1.678824
61.150000 -1.740489
61.200000 -1.791878
61.250000 -1.809008
61.300000 -1.774749
61.350000 -1.730212
61.400000 -1.682249
61.450000 -1.637713
61.500000 -1.613731
61.550000 -1.613731
61.600000 -1.620582
61.650000 -1.654842
61.700000 -1.733637
61.750000 -1.805581
61.800000 -1.867247
61.850000 -1.949469
61.900000 -2.028263
61.950000 -2.062523
62.000000 -2.093357
62.050000 -2.155021
62.100000 -2.182430
62.150000 -2.168726
62.200000 -2.158447
62.250000 -2.144743
62.300000 -2.107060
62.350000 -2.055671
62.400000 -1.987153
62.450000 -1.901506
62.500000 -1.815858
62.550000 -1.702804
62.600000 -1.541787
62.650000 -1.408178
62.700000 -1.336235
62.750000 -1.274568
62.800000 -1.243735
62.850000 -1.284845
62.900000 -1.363641
62.950000 -1.442437
63.000000 -1.545213
63.050000 -1.627435
63.100000 -1.651415
63.150000 -1.644564
63.200000 -1.641138
63.250000 -1.603454
63.300000 -1.517807
63.350000 -1.428732
63.400000 -1.353363
63.450000 -1.277994
63.500000 -1.233457
63.550000 -1.230032
63.600000 -1.260865
63.650000 -1.343086
63.700000 -1.459566
63.750000 -1.579472
63.800000 -1.716508
63.850000 -1.877525
63.900000 -2.007709
63.950000 -2.079652
64.000000 -2.110486
64.050000 -2.103634
64.100000 -2.055671
64.150000 -2.007708
64.200000 -1.932338
64.250000 -1.802155
64.300000 -1.675398
64.350000 -1.624010
64.400000 -1.586325
64.450000 -1.538361
64.500000 -1.541787
64.550000 -1.600027
64.600000 -1.658268
64.650000 -1.733636
64.700000 -1.822711
64.750000 -1.887803
64.800000 -1.939191
64.850000 -2.011134
64.900000 -2.065949
64.950000 -2.069374
65.000000 -2.052246
65.050000 -2.031689
65.100000 -2.000857
65.150000 -1.963173
65.200000 -1.922061
65.250000 -1.867247
65.300000 -1.819284
65.350000 -1.761044
65.400000 -1.689101
65.450000 -1.634287
65.500000 -1.606880
65.550000 -1.562344
65.600000 -1.534936
65.650000 -1.569195
65.700000 -1.624008
65.750000 -1.658268
65.800000 -1.702804
65.850000 -1.774747
65.900000 -1.829562
65.950000 -1.856970
66.000000 -1.894654
66.050000 -1.928914
66.100000 -1.939191
66.150000 -1.932338
66.200000 -1.898080
66.250000 -1.860396
66.300000 -1.815858
66.350000 -1.747342
66.400000 -1.665120
66.450000 -1.593175
66.500000 -1.521232
66.550000 -1.411605
66.600000 -1.301976
66.650000 -1.257438
66.700000 -1.230032
66.750000 -1.182070
66.800000 -1.144384
66.850000 -1.161514
66.900000 -1.230032
66.950000 -1.308827
67.000000 -1.384197
67.050000 -1.490400
67.100000 -1.637713
67.150000 -1.764470
67.200000 -1.832988
67.250000 -1.904931
67.300000 -1.990578
67.350000 -2.017986
67.400000 -1.963171
67.450000 -1.915210
67.500000 -1.877525
67.550000 -1.785025
67.600000 -1.665121
67.650000 -1.576046
67.700000 -1.514381
67.750000 -1.462992
67.800000 -1.439011
67.850000 -1.435584
67.900000 -1.469843
67.950000 -1.545213
68.000000 -1.658269
68.050000 -1.791878
68.100000 -1.922061
68.150000 -2.021411
68.200000 -2.086503
68.250000 -2.144744
68.300000 -2.189282
68.350000 -2.185855
68.400000 -2.165300
68.450000 -2.155023
68.500000 -2.131041
68.550000 -2.065949
68.600000 -2.000857
68.650000 -1.970024
68.700000 -1.939191
68.750000 -1.898080
68.800000 -1.860396
68.850000 -1.822712
68.900000 -1.771322
68.950000 -1.730211
69.000000 -1.719934
69.050000 -1.695952
69.100000 -1.634287
69.150000 -1.558916
69.200000 -1.500676
69.250000 -1.462992
69.300000 -1.435584
69.350000 -1.425307
69.400000 -1.445863
69.450000 -1.500676
69.500000 -1.589749
69.550000 -1.695952
69.600000 -1.795303
69.650000 -1.874098
69.700000 -1.946043
69.750000 -2.000857
69.800000 -1.983727
69.850000 -1.911784
69.900000 -1.795304
69.950000 -1.620582
70.000000 -1.391048
70.050000 -1.147810
70.100000 -0.931980
70.150000 -0.729851
70.200000 -0.575686
70.250000 -0.517446
70.300000 -0.517446
70.350000 -0.565410
70.400000 -0.719575
70.450000 -0.959386
70.500000 -1.202624
70.550000 -1.449289
70.600000 -1.695953
70.650000 -1.901506
70.700000 -2.052244
70.750000 -2.134466
70.800000 -2.127614
70.850000 -2.045394
70.900000 -1.932338
70.950000 -1.785025
71.000000 -1.606880
71.050000 -1.476696
71.100000 -1.397900
71.150000 -1.329383
71.200000 -1.291697
71.250000 -1.305402
71.300000 -1.360215
71.350000 -1.428733
71.400000 -1.510955
71.450000 -1.582899
71.500000 -1.665121
71.550000 -1.767896
71.600000 -1.836414
71.650000 -1.853544
71.700000 -1.877525
71.750000 -1.915210
71.800000 -1.911783
71.850000 -1.894654
71.900000 -1.904932
71.950000 -1.908358
72.000000 -1.880950
72.050000 -1.832988
72.100000 -1.750766
72.150000 -1.651415
72.200000 -1.562343
72.250000 -1.445862
72.300000 -1.284845
72.350000 -1.127255
72.400000 -1.010775
72.450000 -0.911424
72.500000 -0.846331
72.550000 -0.839481
72.600000 -0.860036
72.650000 -0.931978
72.700000 -1.069016
72.750000 -1.216327
72.800000 -1.343087
72.850000 -1.500677
72.900000 -1.661693
72.950000 -1.733638
73.000000 -1.737063
73.050000 -1.733637
73.100000 -1.723359
73.150000 -1.695952
73.200000 -1.661694
73.250000 -1.613731
73.300000 -1.572620
73.350000 -1.565769
73.400000 -1.569195
73.450000 -1.558917
73.500000 -1.562344
73.550000 -1.569195
73.600000 -1.548639
73.650000 -1.500676
73.700000 -1.462992
73.750000 -1.421882
73.800000 -1.370493
73.850000 -1.339660
73.900000 -1.343086
73.950000 -1.363641
74.000000 -1.435585
74.050000 -1.572620
74.100000 -1.733637
74.150000 -1.884376
74.200000 -2.024839
74.250000 -2.110486
74.300000 -2.134467
74.350000 -2.137893
74.400000 -2.103634
74.450000 -2.004283
74.500000 -1.877526
74.550000 -1.750766
74.600000 -1.613731
74.650000 -1.483547
74.700000 -1.384197
74.750000 -1.305400
74.800000 -1.274568
74.850000 -1.284846
74.900000 -1.284845
74.950000 -1.277994
75.000000 -1.301975
75.050000 -1.312253
75.100000 -1.284846
75.150000 -1.288272
75.200000 -1.339659
75.250000 -1.401326
75.300000 -1.480122
75.350000 -1.579472
75.400000 -1.665119
75.450000 -1.761045
75.500000 -1.891229
75.550000 -1.980301
75.600000 -1.990579
75.650000 -2.004283
75.700000 -2.052246
75.750000 -2.052245
75.800000 -1.987154
75.850000 -1.932340
75.900000 -1.911785
75.950000 -1.894654
76.000000 -1.856969
76.050000 -1.812432
76.100000 -1.819284
76.150000 -1.870672
76.200000 -1.891229
76.250000 -1.891228
76.300000 -1.935765
76.350000 -2.007709
76.400000 -2.035116
76.450000 -2.048820
76.500000 -2.065949
76.550000 -2.062523
76.600000 -2.024838
76.650000 -1.990579
76.700000 -1.963172
76.750000 -1.918636
76.800000 -1.860395
76.850000 -1.788452
76.900000 -1.713082
76.950000 -1.661693
77.000000 -1.630860
77.050000 -1.596602
77.100000 -1.576046
77.150000 -1.600027
77.200000 -1.651415
77.250000 -1.702804
77.300000 -1.747341
77.350000 -1.781601
77.400000 -1.805582
77.450000 -1.812433
77.500000 -1.832988
77.550000 -1.843266
77.600000 -1.829562
77.650000 -1.798729
77.700000 -1.778175
77.750000 -1.785026
77.800000 -1.791877
77.850000 -1.785025
77.900000 -1.802155
77.950000 -1.846691
78.000000 -1.874098
78.050000 -1.898080
78.100000 -1.925487
78.150000 -1.922062
78.200000 -1.856970
78.250000 -1.802155
78.300000 -1.771323
78.350000 -1.723359
78.400000 -1.661695
78.450000 -1.620582
78.500000 -1.593176
78.550000 -1.586323
78.600000 -1.606879
78.650000 -1.647989
78.700000 -1.709655
78.750000 -1.788451
78.800000 -1.839840
78.850000 -1.874098
78.900000 -1.918635
78.950000 -1.949469
79.000000 -1.952894
79.050000 -1.956321
79.100000 -1.970025
79.150000 -1.946042
79.200000 -1.915210
79.250000 -1.918635
79.300000 -1.952894
79.350000 -1.980302
79.400000 -2.011135
79.450000 -2.062523
79.500000 -2.107059
79.550000 -2.120764
79.600000 -2.093355
79.650000 -2.038542
79.700000 -2.000857
79.750000 -1.952894
79.800000 -1.863822
79.850000 -1.764470
79.900000 -1.682249
79.950000 -1.603454
80.000000 -1.517805
80.050000 -1.462992
80.100000 -1.449290
80.150000 -1.442436
80.200000 -1.459566
80.250000 -1.493826
80.300000 -1.558918
80.350000 -1.651416
80.400000 -1.754193
80.450000 -1.856970
80.500000 -1.980301
80.550000 -2.096782
80.600000 -2.161873
80.650000 -2.185855
80.700000 -2.206410
80.750000 -2.209837
80.800000 -2.196132
80.850000 -2.168726
80.900000 -2.124189
80.950000 -2.045394
81.000000 -1.970025
81.050000 -1.891228
81.100000 -1.798728
81.150000 -1.716508
81.200000 -1.685674
81.250000 -1.661694
81.300000 -1.624008
81.350000 -1.593175
81.400000 -1.576046
81.450000 -1.545213
81.500000 -1.507528
81.550000 -1.493825
81.600000 -1.480121
81.650000 -1.459566
81.700000 -1.449289
81.750000 -1.462992
81.800000 -1.497251
81.850000 -1.548639
81.900000 -1.586323
81.950000 -1.579472
82.000000 -1.562343
82.050000 -1.562343
82.100000 -1.545213
82.150000 -1.521231
82.200000 -1.507529
82.250000 -1.500677
82.300000 -1.462992
82.350000 -1.432158
82.400000 -1.445863
82.450000 -1.480122
82.500000 -1.521233
82.550000 -1.569195
82.600000 -1.613731
82.650000 -1.671972
82.700000 -1.747341
82.750000 -1.802155
82.800000 -1.822711
82.850000 -1.839840
82.900000 -1.850119
82.950000 -1.826136
83.000000 -1.785027
83.050000 -1.778173
83.100000 -1.802155
83.150000 -1.850118
83.200000 -1.904931
83.250000 -1.973449
83.300000 -2.052244
83.350000 -2.168725
83.400000 -2.298909
83.450000 -2.384556
83.500000 -2.435945
83.550000 -2.487334
83.600000 -2.518165
83.650000 -2.507888
83.700000 -2.490760
83.750000 -2.466778
83.800000 -2.387983
83.850000 -2.274927
83.900000 -2.185856
83.950000 -2.127614
84.000000 -2.072800
84.050000 -1.990579
84.100000 -1.928914
84.150000 -1.918635
84.200000 -1.928912
84.250000 -1.911784
84.300000 -1.894655
84.350000 -1.898080
84.400000 -1.887803
84.450000 -1.870673
84.500000 -1.874098
84.550000 -1.874098
84.600000 -1.836414
84.650000 -1.795303
84.700000 -1.785026
84.750000 -1.781599
84.800000 -1.754193
84.850000 -1.726786
84.900000 -1.695952
84.950000 -1.654841
85.000000 -1.617157
85.050000 -1.589751
85.100000 -1.572620
85.150000 -1.558917
85.200000 -1.555492
85.250000 -1.572620
85.300000 -1.641138
85.350000 -1.737063
85.400000 -1.836414
85.450000 -1.939191
85.500000 -2.052246
85.550000 -2.124188
85.600000 -2.134466
85.650000 -2.103633
85.700000 -2.055671
85.750000 -1.980301
85.800000 -1.901506
85.850000 -1.826137
85.900000 -1.754193
85.950000 -1.702803
86.000000 -1.685674
86.050000 -1.675398
86.100000 -1.661694
86.150000 -1.671971
86.200000 -1.692528
86.250000 -1.692526
86.300000 -1.668545
86.350000 -1.630860
86.400000 -1.569194
86.450000 -1.480121
86.500000 -1.401327
86.550000 -1.346513
86.600000 -1.319105
86.650000 -1.322530
86.700000 -1.367066
86.750000 -1.432158
86.800000 -1.507528
86.850000 -1.558916
86.900000 -1.576046
86.950000 -1.589751
87.000000 -1.582898
87.050000 -1.521233
87.100000 -1.432159
87.150000 -1.353363
87.200000 -1.260864
87.250000 -1.151236
87.300000 -1.079292
87.350000 -1.038182
87.400000 -1.010775
87.450000 -0.993646
87.500000 -0.997071
87.550000 -1.024478
87.600000 -1.062163
87.650000 -1.110125
87.700000 -1.130680
87.750000 -1.144385
87.800000 -1.192347
87.850000 -1.247161
87.900000 -1.260865
87.950000 -1.236884
88.000000 -1.230032
88.050000 -1.247161
88.100000 -1.267717
88.150000 -1.288271
88.200000 -1.308828
88.250000 -1.349938
88.300000 -1.397900
88.350000 -1.445862
88.400000 -1.497251
88.450000 -1.572620
88.500000 -1.658268
88.550000 -1.702804
88.600000 -1.713081
88.650000 -1.723359
88.700000 -1.750767
88.750000 -1.750767
88.800000 -1.726785
88.850000 -1.702804
88.900000 -1.695952
88.950000 -1.689101
89.000000 -1.685675
89.050000 -1.692526
89.100000 -1.726785
89.150000 -1.785025
89.200000 -1.863822
89.250000 -1.956319
89.300000 -2.059096
89.350000 -2.158448
89.400000 -2.206410
89.450000 -2.213261
89.500000 -2.220114
89.550000 -2.209835
89.600000 -2.144743
89.650000 -2.052245
89.700000 -1.952894
89.750000 -1.836414
89.800000 -1.716507
89.850000 -1.603453
89.900000 -1.497251
89.950000 -1.428732
90.000000 -1.370494
90.050000 -1.295124
90.100000 -1.250586
90.150000 -1.236884
90.200000 -1.195773
90.250000 -1.137533
90.300000 -1.127255
90.350000 -1.144384
90.400000 -1.151235
90.450000 -1.164940
90.500000 -1.212902
90.550000 -1.254012
90.600000 -1.281419
90.650000 -1.325956
90.700000 -1.367066
90.750000 -1.370492
90.800000 -1.349938
90.850000 -1.360215
90.900000 -1.363641
90.950000 -1.346512
91.000000 -1.339661
91.050000 -1.370494
91.100000 -1.421882
91.150000 -1.493826
91.200000 -1.606880
91.250000 -1.740488
91.300000 -1.870673
91.350000 -1.935764
91.400000 -1.942617
91.450000 -1.925488
91.500000 -1.894654
91.550000 -1.815858
91.600000 -1.685676
91.650000 -1.528084
91.700000 -1.391048
91.750000 -1.284845
91.800000 -1.178642
91.850000 -1.086144
91.900000 -1.065588
91.950000 -1.110125
92.000000 -1.161515
92.050000 -1.240309
92.100000 -1.367067
92.150000 -1.469845
92.200000 -1.507528
92.250000 -1.572620
92.300000 -1.685675
92.350000 -1.767896
92.400000 -1.798729
92.450000 -1.850118
92.500000 -1.911783
92.550000 -1.952895
92.600000 -1.983727
92.650000 -1.994004
92.700000 -1.946042
92.750000 -1.853543
92.800000 -1.726785
92.850000 -1.576046
92.900000 -1.442437
92.950000 -1.332809
93.000000 -1.219753
93.050000 -1.147809
93.100000 -1.168365
93.150000 -1.240309
93.200000 -1.325956
93.250000 -1.469843
93.300000 -1.695953
93.350000 -1.908358
93.400000 -2.072801
93.450000 -2.199558
93.500000 -2.295483
93.550000 -2.326316
93.600000 -2.268076
93.650000 -2.151596
93.700000 -2.021412
93.750000 -1.880950
93.800000 -1.743914
93.850000 -1.637712
93.900000 -1.565769
93.950000 -1.528085
94.000000 -1.569195
94.050000 -1.641139
94.100000 -1.689100
94.150000 -1.761044
94.200000 -1.836414
94.250000 -1.843266
94.300000 -1.774748
94.350000 -1.685675
94.400000 -1.562343
94.450000 -1.415030
94.500000 -1.284846
94.550000 -1.185495
94.600000 -1.116978
94.650000 -1.110126
94.700000 -1.158089
94.750000 -1.223181
94.800000 -1.319104
94.850000 -1.480122
94.900000 -1.651416
94.950000 -1.781600
95.000000 -1.870672
95.050000 -1.918635
95.100000 -1.911783
95.150000 -1.836414
95.200000 -1.702805
95.250000 -1.524659
95.300000 -1.312253
95.350000 -1.116976
95.400000 -0.966239
95.450000 -0.863462
95.500000 -0.794944
95.550000 -0.753833
95.600000 -0.774387
95.650000 -0.866888
95.700000 -0.997070
95.750000 -1.127255
95.800000 -1.267716
95.850000 -1.421882
95.900000 -1.548639
95.950000 -1.644564
96.000000 -1.737063
96.050000 -1.778173
96.100000 -1.750767
96.150000 -1.726785
96.200000 -1.716508
96.250000 -1.692527
96.300000 -1.665120
96.350000 -1.658268
96.400000 -1.644564
96.450000 -1.624009
96.500000 -1.647990
96.550000 -1.675398
96.600000 -1.658268
96.650000 -1.627434
96.700000 -1.603455
96.750000 -1.569195
96.800000 -1.534936
96.850000 -1.504103
96.900000 -1.473269
96.950000 -1.432158
97.000000 -1.391048
97.050000 -1.360215
97.100000 -1.353363
97.150000 -1.387622
97.200000 -1.401326
97.250000 -1.380770
97.300000 -1.367067
97.350000 -1.349938
97.400000 -1.295123
97.450000 -1.250588
97.500000 -1.236884
97.550000 -1.206050
97.600000 -1.154663
97.650000 -1.140959
97.700000 -1.178643
97.750000 -1.230032
97.800000 -1.308828
97.850000 -1.432158
97.900000 -1.582897
97.950000 -1.740490
98.000000 -1.880950
98.050000 -1.997432
98.100000 -2.076226
98.150000 -2.103635
98.200000 -2.083077
98.250000 -2.038542
98.300000 -1.983727
98.350000 -1.918635
98.400000 -1.839840
98.450000 -1.757618
98.500000 -1.678824
98.550000 -1.589751
98.600000 -1.493826
98.650000 -1.428733
98.700000 -1.408178
98.750000 -1.397900
98.800000 -1.397899
98.850000 -1.428733
98.900000 -1.490398
98.950000 -1.579472
99.000000 -1.678824
99.050000 -1.781600
99.100000 -1.891229
99.150000 -1.997431
99.200000 -2.093355
99.250000 -2.192706
99.300000 -2.271502
99.350000 -2.316040
99.400000 -2.329743
99.450000 -2.309188
99.500000 -2.233818
99.550000 -2.113911
99.600000 -1.987154
99.650000 -1.856970
99.700000 -1.716508
99.750000 -1.610306
99.800000 -1.569195
99.850000 -1.558917
99.900000 -1.576046
99.950000 -1.658268
100.000000 -1.761044
100.050000 -1.843266
100.100000 -1.932340
100.150000 -2.041967
100.200000 -2.076226
100.250000 -2.031690
100.300000 -1.963172
100.350000 -1.850119
100.400000 -1.675397
100.450000 -1.490399
100.500000 -1.322532
100.550000 -1.151236
100.600000 -1.038182
100.650000 -1.010776
100.700000 -1.041607
100.750000 -1.116977
100.800000 -1.226606
100.850000 -1.370494
100.900000 -1.562343
100.950000 -1.774748
101.000000 -1.932340
101.050000 -2.059098
101.100000 -2.189281
101.150000 -2.271502
101.200000 -2.268077
101.250000 -2.220113
101.300000 -2.151597
101.350000 -2.035116
101.400000 -1.891228
101.450000 -1.750767
101.500000 -1.603453
101.550000 -1.449289
101.600000 -1.339661
101.650000 -1.291697
101.700000 -1.274568
101.750000 -1.284845
101.800000 -1.329383
101.850000 -1.411603
101.900000 -1.528084
101.950000 -1.671972
102.000000 -1.802154
102.050000 -1.887802
102.100000 -1.959746
102.150000 -2.031689
102.200000 -2.065950
102.250000 -2.072801
102.300000 -2.069374
102.350000 -2.059096
102.400000 -2.062523
102.450000 -2.065948
102.500000 -2.072801
102.550000 -2.069374
102.600000 -2.062523
102.650000 -2.021412
102.700000 -1.980301
102.750000 -1.946042
102.800000 -1.863821
102.850000 -1.713083
102.900000 -1.576046
102.950000 -1.490400
103.000000 -1.401325
103.050000 -1.288272
103.100000 -1.223181
103.150000 -1.209477
103.200000 -1.195773
103.250000 -1.199199
103.300000 -1.274568
103.350000 -1.373918
103.400000 -1.466417
103.450000 -1.589750
103.500000 -1.733637
103.550000 -1.853543
103.600000 -1.959746
103.650000 -2.069375
103.700000 -2.165299
103.750000 -2.216687
103.800000 -2.213262
103.850000 -2.158447
103.900000 -2.083079
103.950000 -1.983727
104.000000 -1.829562
104.050000 -1.624008
104.100000 -1.432159
104.150000 -1.274568
104.200000 -1.140958
104.250000 -1.065589
104.300000 -1.065588
104.350000 -1.106700
104.400000 -1.164940
104.450000 -1.284846
104.500000 -1.445862
104.550000 -1.589751
104.600000 -1.706231
104.650000 -1.826137
104.700000 -1.918635
104.750000 -1.959747
104.800000 -1.963173
104.850000 -1.942617
104.900000 -1.887802
104.950000 -1.812432
105.000000 -1.713082
105.050000 -1.589749
105.100000 -1.473269
105.150000 -1.356789
105.200000 -1.243735
105.250000 -1.175217
105.300000 -1.134106
105.350000 -1.065590
105.400000 -1.000496
105.450000 -0.986793
105.500000 -0.993645
105.550000 -0.979942
105.600000 -0.959385
105.650000 -0.969665
105.700000 -1.017626
105.750000 -1.075867
105.800000 -1.123830
105.850000 -1.158087
105.900000 -1.206050
105.950000 -1.281420
106.000000 -1.353363
106.050000 -1.411604
106.100000 -1.504103
106.150000 -1.617157
106.200000 -1.675397
106.250000 -1.699378
106.300000 -1.737064
106.350000 -1.750768
106.400000 -1.702804
106.450000 -1.651415
106.500000 -1.606880
106.550000 -1.521231
106.600000 -1.439010
106.650000 -1.397901
106.700000 -1.360215
106.750000 -1.325957
106.800000 -1.353363
106.850000 -1.425307
106.900000 -1.493824
106.950000 -1.552066
107.000000 -1.606880
107.050000 -1.658268
107.100000 -1.702805
107.150000 -1.719934
107.200000 -1.682249
107.250000 -1.613731
107.300000 -1.521232
107.350000 -1.425308
107.400000 -1.346513
107.450000 -1.298550
107.500000 -1.274568
107.550000 -1.271142
107.600000 -1.301976
107.650000 -1.360216
107.700000 -1.445863
107.750000 -1.548639
107.800000 -1.630861
107.850000 -1.678824
107.900000 -1.719934
107.950000 -1.757618
108.000000 -1.747341
108.050000 -1.675398
108.100000 -1.579472
108.150000 -1.480121
108.200000 -1.377345
108.250000 -1.308827
108.300000 -1.264291
108.350000 -1.219753
108.400000 -1.195774
108.450000 -1.226606
108.500000 -1.274568
108.550000 -1.308826
108.600000 -1.349938
108.650000 -1.415029
108.700000 -1.469843
108.750000 -1.504103
108.800000 -1.524658
108.850000 -1.531510
108.900000 -1.521232
108.950000 -1.510955
109.000000 -1.504102
109.050000 -1.480122
109.100000 -1.462991
109.150000 -1.466417
109.200000 -1.469843
109.250000 -1.445862
109.300000 -1.435584
109.350000 -1.452714
109.400000 -1.462992
109.450000 -1.466417
109.500000 -1.469845
109.550000 -1.459566
109.600000 -1.425307
109.650000 -1.391048
109.700000 -1.387622
109.750000 -1.391048
109.800000 -1.391048
109.850000 -1.421882
109.900000 -1.476695
109.950000 -1.517806
110.000000 -1.548639
110.050000 -1.589750
110.100000 -1.603454
110.150000 -1.589749
110.200000 -1.565769
110.250000 -1.524657
110.300000 -1.456141
110.350000 -1.384197
110.400000 -1.332809
110.450000 -1.260864
110.500000 -1.182069
110.550000 -1.144384
110.600000 -1.161514
110.650000 -1.195773
110.700000 -1.240309
110.750000 -1.298548
110.800000 -1.370493
110.850000 -1.466417
110.900000 -1.552066
110.950000 -1.572620
111.000000 -1.528084
111.050000 -1.466418
111.100000 -1.408179
111.150000 -1.353363
111.200000 -1.281420
111.250000 -1.223180
111.300000 -1.199199
111.350000 -1.230032
111.400000 -1.284846
111.450000 -1.349938
111.500000 -1.435584
111.550000 -1.524659
111.600000 -1.606880
111.650000 -1.689100
111.700000 -1.757618
111.750000 -1.757618
111.800000 -1.706230
111.850000 -1.651416
111.900000 -1.565768
111.950000 -1.456141
112.000000 -1.387622
112.050000 -1.363641
112.100000 -1.336234
112.150000 -1.343086
112.200000 -1.408177
112.250000 -1.486973
112.300000 -1.558918
112.350000 -1.651416
112.400000 -1.723359
112.450000 -1.771322
112.500000 -1.819285
112.550000 -1.836414
112.600000 -1.774748
112.650000 -1.689100
112.700000 -1.600027
112.750000 -1.493825
112.800000 -1.380771
112.850000 -1.288271
112.900000 -1.226606
112.950000 -1.199199
113.000000 -1.209476
113.050000 -1.254012
113.100000 -1.329383
113.150000 -1.425307
113.200000 -1.517806
113.250000 -1.603453
113.300000 -1.702804
113.350000 -1.791878
113.400000 -1.839840
113.450000 -1.856970
113.500000 -1.856969
113.550000 -1.812432
113.600000 -1.723359
113.650000 -1.613731
113.700000 -1.500676
113.750000 -1.363641
113.800000 -1.209477
113.850000 -1.086145
113.900000 -1.003923
113.950000 -0.955961
114.000000 -0.942257
114.050000 -0.973091
114.100000 -1.062162
114.150000 -1.192346
114.200000 -1.360215
114.250000 -1.582898
114.300000 -1.829562
114.350000 -2.055671
114.400000 -2.254373
114.450000 -2.422241
114.500000 -2.511315
114.550000 -2.504462
114.600000 -2.425667
114.650000 -2.309187
114.700000 -2.110485
114.750000 -1.839840
114.800000 -1.569195
114.850000 -1.339659
114.900000 -1.137532
114.950000 -0.979942
115.000000 -0.914850
115.050000 -0.935406
115.100000 -1.021052
115.150000 -1.161515
115.200000 -1.322530
115.250000 -1.486974
115.300000 -1.651416
115.350000 -1.785026
115.400000 -1.856969
115.450000 -1.894653
115.500000 -1.894654
115.550000 -1.819286
115.600000 -1.685675
115.650000 -1.521232
115.700000 -1.325956
115.750000 -1.116978
115.800000 -0.945684
115.850000 -0.815498
115.900000 -0.723000
115.950000 -0.692168
116.000000 -0.712722
116.050000 -0.788093
116.100000 -0.938831
116.150000 -1.134106
116.200000 -1.325956
116.250000 -1.510954
116.300000 -1.695952
116.350000 -1.846692
116.400000 -1.973450
116.450000 -2.076226
116.500000 -2.127614
116.550000 -2.103635
116.600000 -2.041968
116.650000 -1.956321
116.700000 -1.819284
116.750000 -1.665119
116.800000 -1.531510
116.850000 -1.415030
116.900000 -1.336233
116.950000 -1.312253
117.000000 -1.325957
117.050000 -1.370494
117.100000 -1.469844
117.150000 -1.596601
117.200000 -1.726785
117.250000 -1.867246
117.300000 -2.017987
117.350000 -2.124188
117.400000 -2.189280
117.450000 -2.244095
117.500000 -2.278354
117.550000 -2.261224
117.600000 -2.216687
117.650000 -2.165300
117.700000 -2.072801
117.750000 -1.942616
117.800000 -1.812434
117.850000 -1.719934
117.900000 -1.644564
117.950000 -1.572620
118.000000 -1.493825
118.050000 -1.425307
118.100000 -1.394474
118.150000 -1.408179
118.200000 -1.445864
118.250000 -1.507528
118.300000 -1.579472
118.350000 -1.627435
118.400000 -1.658268
118.450000 -1.706230
118.500000 -1.743915
118.550000 -1.719934
118.600000 -1.668545
118.650000 -1.637713
118.700000 -1.606880
118.750000 -1.572621
118.800000 -1.582898
118.850000 -1.634287
118.900000 -1.695953
118.950000 -1.778174
119.000000 -1.891228
119.050000 -2.011135
119.100000 -2.120764
119.150000 -2.209835
119.200000 -2.271502
119.250000 -2.305761
119.300000 -2.305761
119.350000 -2.271502
119.400000 -2.216689
119.450000 -2.144744
119.500000 -2.052246
119.550000 -1.949469
119.600000 -1.867247
119.650000 -1.815858
119.700000 -1.764470
119.750000 -1.713083
119.800000 -1.671972
119.850000 -1.678824
119.900000 -1.695953
119.950000 -1.695953
120.000000 -1.695952
120.050000 -1.740489
120.100000 -1.812433
120.150000 -1.870673
120.200000 -1.922062
120.250000 -1.980301
120.300000 -2.048820
120.350000 -2.124189
120.400000 -2.182428
120.450000 -2.199559
120.500000 -2.209836
120.550000 -2.226966
120.600000 -2.196132
120.650000 -2.127616
120.700000 -2.076227
120.750000 -2.004282
120.800000 -1.874098
120.850000 -1.743915
120.900000 -1.654843
120.950000 -1.541789
121.000000 -1.442436
121.050000 -1.401325
121.100000 -1.380771
121.150000 -1.367067
121.200000 -1.408178
121.250000 -1.480121
121.300000 -1.510955
121.350000 -1.538361
121.400000 -1.576046
121.450000 -1.593176
121.500000 -1.572621
121.550000 -1.552066
121.600000 -1.504103
121.650000 -1.404752
121.700000 -1.298550
121.750000 -1.219753
121.800000 -1.140958
121.850000 -1.069014
121.900000 -1.034757
121.950000 -1.017626
122.000000 -1.017626
122.050000 -1.062162
122.100000 -1.134106
122.150000 -1.188921
122.200000 -1.240309
122.250000 -1.322530
122.300000 -1.397900
122.350000 -1.435584
122.400000 -1.469843
122.450000 -1.497251
122.500000 -1.521233
122.550000 -1.555490
122.600000 -1.603455
122.650000 -1.634287
122.700000 -1.661693
122.750000 -1.702804
122.800000 -1.750768
122.850000 -1.788451
122.900000 -1.836413
122.950000 -1.880951
123.000000 -1.891228
123.050000 -1.884376
123.100000 -1.863822
123.150000 -1.805582
123.200000 -1.713082
123.250000 -1.627436
123.300000 -1.531510
123.350000 -1.394474
123.400000 -1.250587
123.450000 -1.140958
123.500000 -1.055311
123.550000 -1.003922
123.600000 -0.969665
123.650000 -0.949109
123.700000 -0.973091
123.750000 -1.048460
123.800000 -1.130681
123.850000 -1.212902
123.900000 -1.319104
123.950000 -1.418456
124.000000 -1.473269
124.050000 -1.514380
124.100000 -1.541787
124.150000 -1.528084
124.200000 -1.469843
124.250000 -1.415030
124.300000 -1.373918
124.350000 -1.339660
124.400000 -1.319104
124.450000 -1.332808
124.500000 -1.377345
124.550000 -1.466418
124.600000 -1.576046
124.650000 -1.685675
124.700000 -1.798729
124.750000 -1.911783
124.800000 -2.000857
124.850000 -2.048819
124.900000 -2.059098
124.950000 -2.011135
125.000000 -1.925487
125.050000 -1.839840
125.100000 -1.737063
125.150000 -1.627434
125.200000 -1.555492
125.250000 -1.514381
125.300000 -1.476696
125.350000 -1.490400
125.400000 -1.538361
125.450000 -1.572620
125.500000 -1.617157
125.550000 -1.702804
125.600000 -1.788451
125.650000 -1.843266
125.700000 -1.898081
125.750000 -1.918636
125.800000 -1.891229
125.850000 -1.860396
125.900000 -1.839840
125.950000 -1.788453
126.000000 -1.716508
126.050000 -1.665119
126.100000 -1.603454
126.150000 -1.521231
126.200000 -1.480122
126.250000 -1.480121
126.300000 -1.490399
126.350000 -1.514381
126.400000 -1.545213
126.450000 -1.548640
126.500000 -1.555492
126.550000 -1.579472
126.600000 -1.552065
126.650000 -1.486973
126.700000 -1.462992
126.750000 -1.439011
126.800000 -1.384197
126.850000 -1.360215
126.900000 -1.394474
126.950000 -1.428733
127.000000 -1.452715
127.050000 -1.521233
127.100000 -1.627436
127.150000 -1.699378
127.200000 -1.719934
127.250000 -1.706230
127.300000 -1.689101
127.350000 -1.665119
127.400000 -1.627434
127.450000 -1.576046
127.500000 -1.531510
127.550000 -1.521232
127.600000 -1.531510
127.650000 -1.576046
127.700000 -1.665119
127.750000 -1.767896
127.800000 -1.853544
127.850000 -1.915211
127.900000 -1.966597
127.950000 -1.994006
128.000000 -1.980302
128.050000 -1.928912
128.100000 -1.863822
128.150000 -1.805581
128.200000 -1.750768
128.250000 -1.695952
128.300000 -1.678823
128.350000 -1.709656
128.400000 -1.785025
128.450000 -1.891228
128.500000 -2.007708
128.550000 -2.096782
128.600000 -2.175577
128.650000 -2.271502
128.700000 -2.333168
128.750000 -2.312613
128.800000 -2.237242
128.850000 -2.158449
128.900000 -2.079652
128.950000 -1.983727
129.000000 -1.870672
129.050000 -1.750766
129.100000 -1.654842
129.150000 -1.589749
129.200000 -1.514380
129.250000 -1.445863
129.300000 -1.428733
129.350000 -1.421882
129.400000 -1.377345
129.450000 -1.353364
129.500000 -1.387623
129.550000 -1.421882
129.600000 -1.439011
129.650000 -1.490399
129.700000 -1.552065
129.750000 -1.596601
129.800000 -1.658268
129.850000 -1.740489
129.900000 -1.802155
129.950000 -1.839840
130.000000 -1.863822
130.050000 -1.853543
130.100000 -1.791878
130.150000 -1.702804
130.200000 -1.603454
130.250000 -1.490400
130.300000 -1.370494
130.350000 -1.230032
130.400000 -1.103273
130.450000 -1.031329
130.500000 -0.990219
130.550000 -0.955961
130.600000 -0.942257
130.650000 -0.976517
130.700000 -1.045033
130.750000 -1.134106
130.800000 -1.230032
130.850000 -1.339661
130.900000 -1.445863
130.950000 -1.538361
131.000000 -1.610305
131.050000 -1.651415
131.100000 -1.689100
131.150000 -1.699379
131.200000 -1.654841
131.250000 -1.586323
131.300000 -1.545213
131.350000 -1.500677
131.400000 -1.401326
131.450000 -1.301976
131.500000 -1.257439
131.550000 -1.202624
131.600000 -1.130681
131.650000 -1.096421
131.700000 -1.120404
131.750000 -1.154663
131.800000 -1.212902
131.850000 -1.319105
131.900000 -1.435585
131.950000 -1.548639
132.000000 -1.678822
132.050000 -1.798729
132.100000 -1.874099
132.150000 -1.922061
132.200000 -1.963172
132.250000 -1.966597
132.300000 -1.925487
132.350000 -1.856969
132.400000 -1.778175
132.450000 -1.682249
132.500000 -1.586324
132.550000 -1.497251
132.600000 -1.428733
132.650000 -1.387622
132.700000 -1.373919
132.750000 -1.370492
132.800000 -1.380771
132.850000 -1.418455
132.900000 -1.507528
132.950000 -1.606879
133.000000 -1.689100
133.050000 -1.761044
133.100000 -1.860396
133.150000 -1.928912
133.200000 -1.939190
133.250000 -1.932339
133.300000 -1.925487
133.350000 -1.860396
133.400000 -1.726785
133.450000 -1.606880
133.500000 -1.510954
133.550000 -1.394474
133.600000 -1.284845
133.650000 -1.216327
133.700000 -1.182070
133.750000 -1.175216
133.800000 -1.223179
133.850000 -1.312253
133.900000 -1.408178
133.950000 -1.490399
134.000000 -1.548639
134.050000 -1.613731
134.100000 -1.668546
134.150000 -1.671971
134.200000 -1.624008
134.250000 -1.586324
134.300000 -1.565770
134.350000 -1.534936
134.400000 -1.500676
134.450000 -1.500677
134.500000 -1.545213
134.550000 -1.610305
134.600000 -1.702804
134.650000 -1.812433
134.700000 -1.942617
134.750000 -2.083079
134.800000 -2.206410
134.850000 -2.274927
134.900000 -2.319465
134.950000 -2.336594
135.000000 -2.295484
135.050000 -2.202984
135.100000 -2.072800
135.150000 -1.911785
135.200000 -1.713083
135.250000 -1.510954
135.300000 -1.295123
135.350000 -1.058737
135.400000 -0.829203
135.450000 -0.644205
135.500000 -0.486614
135.550000 -0.363280
135.600000 -0.287911
135.650000 -0.267357
135.700000 -0.301616
135.750000 -0.390689
135.800000 -0.527725
135.850000 -0.712723
135.900000 -0.935404
135.950000 -1.151236
136.000000 -1.336234
136.050000 -1.510955
136.100000 -1.668545
136.150000 -1.781600
136.200000 -1.815859
136.250000 -1.785025
136.300000 -1.726785
136.350000 -1.654841
136.400000 -1.569194
136.450000 -1.504102
136.500000 -1.473270
136.550000 -1.456141
136.600000 -1.435585
136.650000 -1.439010
136.700000 -1.504104
136.750000 -1.593175
136.800000 -1.668546
136.850000 -1.726785
136.900000 -1.785026
136.950000 -1.829562
137.000000 -1.832987
137.050000 -1.802155
137.100000 -1.757618
137.150000 -1.706231
137.200000 -1.651416
137.250000 -1.617157
137.300000 -1.603455
137.350000 -1.596601
137.400000 -1.582898
137.450000 -1.558918
137.500000 -1.541787
137.550000 -1.524657
137.600000 -1.514380
137.650000 -1.507528
137.700000 -1.490400
137.750000 -1.452715
137.800000 -1.428733
137.850000 -1.445862
137.900000 -1.473269
137.950000 -1.486974
138.000000 -1.514380
138.050000 -1.589749
138.100000 -1.682249
138.150000 -1.764470
138.200000 -1.836413
138.250000 -1.887803
138.300000 -1.915210
138.350000 -1.932338
138.400000 -1.918635
138.450000 -1.880950
138.500000 -1.863821
138.550000 -1.870673
138.600000 -1.853543
138.650000 -1.819284
138.700000 -1.826138
138.750000 -1.839840
138.800000 -1.819286
138.850000 -1.809006
138.900000 -1.829562
138.950000 -1.832988
139.000000 -1.822710
139.050000 -1.822710
139.100000 -1.829562
139.150000 -1.815860
139.200000 -1.795303
139.250000 -1.761046
139.300000 -1.699378
139.350000 -1.641139
139.400000 -1.593176
139.450000 -1.510954
139.500000 -1.415030
139.550000 -1.346512
139.600000 -1.298550
139.650000 -1.247160
139.700000 -1.236884
139.750000 -1.305400
139.800000 -1.421882
139.850000 -1.569194
139.900000 -1.743914
139.950000 -1.932339
140.000000 -2.113911
140.050000 -2.305761
140.100000 -2.470204
140.150000 -2.586684
140.200000 -2.638073
140.250000 -2.600387
140.300000 -2.511314
140.350000 -2.411963
140.400000 -2.264650
140.450000 -2.065950
140.500000 -1.880950
140.550000 -1.737063
140.600000 -1.593177
140.650000 -1.452714
140.700000 -1.329382
140.750000 -1.202624
140.800000 -1.075866
140.850000 -0.986793
140.900000 -0.928553
140.950000 -0.856610
141.000000 -0.767536
141.050000 -0.685315
141.100000 -0.633927
141.150000 -0.606520
141.200000 -0.572261
141.250000 -0.568835
141.300000 -0.633927
141.350000 -0.709296
141.400000 -0.740129
141.450000 -0.798369
141.500000 -0.928554
141.550000 -1.038181
141.600000 -1.127255
141.650000 -1.240309
141.700000 -1.349938
141.750000 -1.401325
141.800000 -1.445863
141.850000 -1.521233
141.900000 -1.586324
141.950000 -1.641138
142.000000 -1.709655
142.050000 -1.767896
142.100000 -1.822711
142.150000 -1.908357
142.200000 -2.007709
142.250000 -2.059098
142.300000 -2.093355
142.350000 -2.117337
142.400000 -2.093356
142.450000 -2.028264
142.500000 -1.952894
142.550000 -1.853544
142.600000 -1.730211
142.650000 -1.606880
142.700000 -1.493824
142.750000 -1.391048
142.800000 -1.336233
142.850000 -1.325956
142.900000 -1.315678
142.950000 -1.332809
143.000000 -1.418456
143.050000 -1.528085
143.100000 -1.630861
143.150000 -1.740489
143.200000 -1.826137
143.250000 -1.863822
143.300000 -1.877526
143.350000 -1.870673
143.400000 -1.809007
143.450000 -1.716508
143.500000 -1.610305
143.550000 -1.480121
143.600000 -1.349938
143.650000 -1.254012
143.700000 -1.192346
143.750000 -1.130681
143.800000 -1.089570
143.850000 -1.086144
143.900000 -1.110125
143.950000 -1.147811
144.000000 -1.171791
144.050000 -1.178644
144.100000 -1.202624
144.150000 -1.230032
144.200000 -1.240309
144.250000 -1.274568
144.300000 -1.343087
144.350000 -1.421882
144.400000 -1.517807
144.450000 -1.641138
144.500000 -1.764470
144.550000 -1.898081
144.600000 -2.031689
144.650000 -2.137892
144.700000 -2.192706
144.750000 -2.206411
144.800000 -2.192707
144.850000 -2.151597
144.900000 -2.079651
144.950000 -1.976876
145.000000 -1.874099
145.050000 -1.805581
145.100000 -1.743914
145.150000 -1.702804
145.200000 -1.692526
145.250000 -1.719934
145.300000 -1.767896
145.350000 -1.826137
145.400000 -1.877525
145.450000 -1.918635
145.500000 -1.956320
145.550000 -1.963173
145.600000 -1.918635
145.650000 -1.874098
145.700000 -1.863820
145.750000 -1.846691
145.800000 -1.815859
145.850000 -1.815858
145.900000 -1.843266
145.950000 -1.853543
146.000000 -1.863821
146.050000 -1.915210
146.100000 -1.987154
146.150000 -2.021412
146.200000 -2.028263
146.250000 -2.028264
146.300000 -2.007710
146.350000 -1.959747
146.400000 -1.884376
146.450000 -1.781599
146.500000 -1.695953
146.550000 -1.634287
146.600000 -1.572621
146.650000 -1.504103
146.700000 -1.473269
146.750000 -1.469844
146.800000 -1.456141
146.850000 -1.442438
146.900000 -1.439010
146.950000 -1.415031
147.000000 -1.373918
147.050000 -1.308827
147.100000 -1.219754
147.150000 -1.113552
147.200000 -1.024477
147.250000 -0.942257
147.300000 -0.863461
147.350000 -0.812072
147.400000 -0.815498
147.450000 -0.849759
147.500000 -0.907998
147.550000 -0.997070
147.600000 -1.099847
147.650000 -1.219753
147.700000 -1.349938
147.750000 -1.469844
147.800000 -1.582898
147.850000 -1.661694
147.900000 -1.675398
147.950000 -1.634288
148.000000 -1.576046
148.050000 -1.473270
148.100000 -1.336235
148.150000 -1.240309
148.200000 -1.209476
148.250000 -1.206050
148.300000 -1.250588
148.350000 -1.356789
148.400000 -1.521232
148.450000 -1.723359
148.500000 -1.935765
148.550000 -2.151595
148.600000 -2.357149
148.650000 -2.511314
148.700000 -2.590110
148.750000 -2.620942
148.800000 -2.590111
148.850000 -2.463351
148.900000 -2.268075
148.950000 -2.062523
149.000000 -1.863822
149.050000 -1.658268
149.100000 -1.473270
149.150000 -1.349938
149.200000 -1.257439
149.250000 -1.188921
149.300000 -1.171791
149.350000 -1.209477
149.400000 -1.257440
149.450000 -1.298550
149.500000 -1.353363
149.550000 -1.425307
149.600000 -1.504102
149.650000 -1.576046
149.700000 -1.620583
149.750000 -1.651416
149.800000 -1.671971
149.850000 -1.651416
149.900000 -1.641139
149.950000 -1.685675
150.000000 -1.750766
150.050000 -1.778174
150.100000 -1.815858
150.150000 -1.922062
150.200000 -2.021413
150.250000 -2.100207
150.300000 -2.213263
150.350000 -2.340020
150.400000 -2.398260
150.450000 -2.401687
150.500000 -2.394835
150.550000 -2.346873
150.600000 -2.233818
150.650000 -2.083079
150.700000 -1.918635
150.750000 -1.716509
150.800000 -1.480121
150.850000 -1.260864
150.900000 -1.103273
150.950000 -1.017626
151.000000 -0.983367
151.050000 -1.007349
151.100000 -1.099848
151.150000 -1.230031
151.200000 -1.367068
151.250000 -1.507528
151.300000 -1.654842
151.350000 -1.764470
151.400000 -1.795303
151.450000 -1.785026
151.500000 -1.771323
151.550000 -1.740490
151.600000 -1.651415
151.650000 -1.531509
151.700000 -1.442436
151.750000 -1.377345
151.800000 -1.325957
151.850000 -1.319104
151.900000 -1.363641
151.950000 -1.432160
152.000000 -1.514380
152.050000 -1.606880
152.100000 -1.689101
152.150000 -1.764470
152.200000 -1.812432
152.250000 -1.809006
152.300000 -1.785026
152.350000 -1.761044
152.400000 -1.709656
152.450000 -1.627435
152.500000 -1.541788
152.550000 -1.483548
152.600000 -1.421882
152.650000 -1.377346
152.700000 -1.360215
152.750000 -1.360215
152.800000 -1.387622
152.850000 -1.442438
152.900000 -1.504103
152.950000 -1.555490
153.000000 -1.624008
153.050000 -1.699378
153.100000 -1.740490
153.150000 -1.740490
153.200000 -1.733637
153.250000 -1.730211
153.300000 -1.702804
153.350000 -1.651416
153.400000 -1.600027
153.450000 -1.555491
153.500000 -1.514380
153.550000 -1.466417
153.600000 -1.418456
153.650000 -1.397900
153.700000 -1.425307
153.750000 -1.459565
153.800000 -1.469843
153.850000 -1.497251
153.900000 -1.579472
153.950000 -1.637713
154.000000 -1.634287
154.050000 -1.624008
154.100000 -1.627434
154.150000 -1.610305
154.200000 -1.552066
154.250000 -1.473269
154.300000 -1.394473
154.350000 -1.312253
154.400000 -1.206050
154.450000 -1.099847
154.500000 -1.055310
154.550000 -1.058737
154.600000 -1.069014
154.650000 -1.099847
154.700000 -1.175217
154.750000 -1.267717
154.800000 -1.343086
154.850000 -1.408178
154.900000 -1.469843
154.950000 -1.507528
155.000000 -1.524658
155.050000 -1.538361
155.100000 -1.555491
155.150000 -1.558916
155.200000 -1.538362
155.250000 -1.497251
155.300000 -1.476697
155.350000 -1.466417
155.400000 -1.442436
155.450000 -1.408177
155.500000 -1.397901
155.550000 -1.401325
155.600000 -1.394474
155.650000 -1.387622
155.700000 -1.404751
155.750000 -1.404752
155.800000 -1.367067
155.850000 -1.332808
155.900000 -1.339660
155.950000 -1.370494
156.000000 -1.411603
156.050000 -1.473269
156.100000 -1.548639
156.150000 -1.627434
156.200000 -1.713082
156.250000 -1.785026
156.300000 -1.832988
156.350000 -1.863821
156.400000 -1.898080
156.450000 -1.898080
156.500000 -1.863820
156.550000 -1.822710
156.600000 -1.771322
156.650000 -1.695952
156.700000 -1.644564
156.750000 -1.634287
156.800000 -1.627435
156.850000 -1.627434
156.900000 -1.654842
156.950000 -1.671971
157.000000 -1.668545
157.050000 -1.651416
157.100000 -1.647990
157.150000 -1.637712
157.200000 -1.617157
157.250000 -1.593176
157.300000 -1.565768
157.350000 -1.534936
157.400000 -1.514381
157.450000 -1.531510
157.500000 -1.562344
157.550000 -1.572620
157.600000 -1.572620
157.650000 -1.586324
157.700000 -1.600027
157.750000 -1.606880
157.800000 -1.586323
157.850000 -1.562344
157.900000 -1.541787
157.950000 -1.510954
158.000000 -1.483547
158.050000 -1.493825
158.100000 -1.507528
158.150000 -1.497251
158.200000 -1.500677
158.250000 -1.524658
158.300000 -1.531510
158.350000 -1.521232
158.400000 -1.538361
158.450000 -1.572620
158.500000 -1.600029
158.550000 -1.641138
158.600000 -1.675397
158.650000 -1.689100
158.700000 -1.716508
158.750000 -1.761045
158.800000 -1.785026
158.850000 -1.781600
158.900000 -1.764470
158.950000 -1.706230
159.000000 -1.617157
159.050000 -1.517806
159.100000 -1.391048
159.150000 -1.260865
159.200000 -1.168365
159.250000 -1.116978
159.300000 -1.079292
159.350000 -1.075866
159.400000 -1.123829
159.450000 -1.188921
159.500000 -1.267717
159.550000 -1.401327
159.600000 -1.562344
159.650000 -1.726786
159.700000 -1.880951
159.750000 -2.028264
159.800000 -2.131040
159.850000 -2.175577
159.900000 -2.168725
159.950000 -2.148169
160.000000 -2.079652
160.050000 -1.915209
160.100000 -1.713082
160.150000 -1.555492
160.200000 -1.404751
160.250000 -1.226606
160.300000 -1.089570
160.350000 -1.021052
160.400000 -0.993646
160.450000 -1.055311
160.500000 -1.188921
160.550000 -1.312253
160.600000 -1.421882
160.650000 -1.586324
160.700000 -1.740488
160.750000 -1.809008
160.800000 -1.839841
160.850000 -1.884376
160.900000 -1.887802
160.950000 -1.826136
161.000000 -1.761044
161.050000 -1.706231
161.100000 -1.641139
161.150000 -1.600028
161.200000 -1.613730
161.250000 -1.647990
161.300000 -1.689100
161.350000 -1.778173
161.400000 -1.894654
161.450000 -1.997430
161.500000 -2.113911
161.550000 -2.240670
161.600000 -2.353724
161.650000 -2.432519
161.700000 -2.477056
161.750000 -2.480481
161.800000 -2.466778
161.850000 -2.446222
161.900000 -2.381130
161.950000 -2.261225
162.000000 -2.144744
162.050000 -2.045394
162.100000 -1.970024
162.150000 -1.922062
162.200000 -1.894654
162.250000 -1.870673
162.300000 -1.880950
162.350000 -1.922060
162.400000 -1.956320
162.450000 -1.990580
162.500000 -2.038542
162.550000 -2.103633
162.600000 -2.161874
162.650000 -2.199559
162.700000 -2.220115
162.750000 -2.223540
162.800000 -2.220115
162.850000 -2.196132
162.900000 -2.161874
162.950000 -2.120763
163.000000 -2.072800
163.050000 -2.014560
163.100000 -1.973449
163.150000 -1.939191
163.200000 -1.891228
163.250000 -1.839840
163.300000 -1.805581
163.350000 -1.778175
163.400000 -1.757618
163.450000 -1.743914
163.500000 -1.730211
163.550000 -1.726786
163.600000 -1.737063
163.650000 -1.754193
163.700000 -1.778175
163.750000 -1.829562
163.800000 -1.918635
163.850000 -2.024839
163.900000 -2.124189
163.950000 -2.199559
164.000000 -2.274927
164.050000 -2.346872
164.100000 -2.401686
164.150000 -2.422242
164.200000 -2.381132
164.250000 -2.278354
164.300000 -2.151597
164.350000 -2.024837
164.400000 -1.880950
164.450000 -1.743916
164.500000 -1.651416
164.550000 -1.593176
164.600000 -1.562343
164.650000 -1.579472
164.700000 -1.634287
164.750000 -1.713083
164.800000 -1.805581
164.850000 -1.908358
164.900000 -1.983727
164.950000 -2.017987
165.000000 -2.028264
165.050000 -2.007709
165.100000 -1.959746
165.150000 -1.898081
165.200000 -1.809006
165.250000 -1.737063
165.300000 -1.699378
165.350000 -1.675398
165.400000 -1.644564
165.450000 -1.634286
165.500000 -1.647989
165.550000 -1.637713
165.600000 -1.589749
165.650000 -1.548639
165.700000 -1.528084
165.750000 -1.480122
165.800000 -1.418456
165.850000 -1.384197
165.900000 -1.391048
165.950000 -1.401326
166.000000 -1.418455
166.050000 -1.462992
166.100000 -1.510954
166.150000 -1.562342
166.200000 -1.634286
166.250000 -1.702804
166.300000 -1.750767
166.350000 -1.798729
166.400000 -1.850119
166.450000 -1.891229
166.500000 -1.925488
166.550000 -1.949469
166.600000 -1.959747
166.650000 -1.963172
166.700000 -1.949469
166.750000 -1.925487
166.800000 -1.884376
166.850000 -1.791877
166.900000 -1.637712
166.950000 -1.456141
167.000000 -1.274568
167.050000 -1.089569
167.100000 -0.945683
167.150000 -0.866888
167.200000 -0.832628
167.250000 -0.839480
167.300000 -0.901147
167.350000 -1.017626
167.400000 -1.144384
167.450000 -1.291699
167.500000 -1.456141
167.550000 -1.603455
167.600000 -1.695954
167.650000 -1.761044
167.700000 -1.798729
167.750000 -1.795303
167.800000 -1.737063
167.850000 -1.682249
167.900000 -1.644564
167.950000 -1.586324
168.000000 -1.500676
168.050000 -1.452715
168.100000 -1.411604
168.150000 -1.336233
168.200000 -1.291697
168.250000 -1.315678
168.300000 -1.336233
168.350000 -1.322531
168.400000 -1.322530
168.450000 -1.367068
168.500000 -1.432159
168.550000 -1.510954
168.600000 -1.579471
168.650000 -1.637712
168.700000 -1.695952
168.750000 -1.723359
168.800000 -1.709657
168.850000 -1.682249
168.900000 -1.630860
168.950000 -1.541787
169.000000 -1.439010
169.050000 -1.356789
169.100000 -1.271143
169.150000 -1.216328
169.200000 -1.219755
169.250000 -1.236884
169.300000 -1.247161
169.350000 -1.291698
169.400000 -1.360215
169.450000 -1.408178
169.500000 -1.442436
169.550000 -1.483548
169.600000 -1.483547
169.650000 -1.466418
169.700000 -1.469843
169.750000 -1.466417
169.800000 -1.411605
169.850000 -1.353363
169.900000 -1.329382
169.950000 -1.301975
170.000000 -1.291697
170.050000 -1.312253
170.100000 -1.325957
170.150000 -1.329383
170.200000 -1.360215
170.250000 -1.367067
170.300000 -1.308828
170.350000 -1.267717
170.400000 -1.267717
170.450000 -1.230031
170.500000 -1.158089
170.550000 -1.106700
170.600000 -1.079292
170.650000 -1.048459
170.700000 -1.058736
170.750000 -1.127255
170.800000 -1.219755
170.850000 -1.343086
170.900000 -1.490399
170.950000 -1.603454
171.000000 -1.675398
171.050000 -1.737064
171.100000 -1.778174
171.150000 -1.788452
171.200000 -1.764470
171.250000 -1.689101
171.300000 -1.555492
171.350000 -1.418456
171.400000 -1.281420
171.450000 -1.134107
171.500000 -1.014201
171.550000 -0.959387
171.600000 -0.938832
171.650000 -0.945683
171.700000 -1.010775
171.750000 -1.106700
171.800000 -1.188921
171.850000 -1.291697
171.900000 -1.432159
171.950000 -1.548639
172.000000 -1.624009
172.050000 -1.713082
172.100000 -1.781601
172.150000 -1.822710
172.200000 -1.874099
172.250000 -1.915210
172.300000 -1.898081
172.350000 -1.856970
172.400000 -1.853543
172.450000 -1.829561
172.500000 -1.757619
172.550000 -1.716508
172.600000 -1.723359
172.650000 -1.726785
172.700000 -1.723360
172.750000 -1.737063
172.800000 -1.761044
172.850000 -1.798729
172.900000 -1.860396
172.950000 -1.908358
173.000000 -1.939191
173.050000 -1.994005
173.100000 -2.055672
173.150000 -2.048820
173.200000 -2.017987
173.250000 -2.004283
173.300000 -1.959747
173.350000 -1.891228
173.400000 -1.846691
173.450000 -1.812432
173.500000 -1.781599
173.550000 -1.791877
173.600000 -1.843266
173.650000 -1.901506
173.700000 -1.976876
173.750000 -2.072800
173.800000 -2.134466
173.850000 -2.172152
173.900000 -2.216688
173.950000 -2.223539
174.000000 -2.168725
174.050000 -2.093355
174.100000 -2.011135
174.150000 -1.901505
174.200000 -1.798729
174.250000 -1.726786
174.300000 -1.658268
174.350000 -1.593175
174.400000 -1.562343
174.450000 -1.565770
174.500000 -1.562342
174.550000 -1.548639
174.600000 -1.528084
174.650000 -1.510954
174.700000 -1.459566
174.750000 -1.377346
174.800000 -1.274568
174.850000 -1.199199
174.900000 -1.137532
174.950000 -1.079292
175.000000 -1.034755
175.050000 -1.058737
175.100000 -1.130680
175.150000 -1.202624
175.200000 -1.288272
175.250000 -1.428733
175.300000 -1.579472
175.350000 -1.689100
175.400000 -1.805582
175.450000 -1.932339
175.500000 -2.014560
175.550000 -2.014560
175.600000 -1.994005
175.650000 -1.959747
175.700000 -1.870673
175.750000 -1.737062
175.800000 -1.613731
175.850000 -1.517806
175.900000 -1.439010
175.950000 -1.380771
176.000000 -1.349938
176.050000 -1.343086
176.100000 -1.373918
176.150000 -1.435586
176.200000 -1.500676
176.250000 -1.541787
176.300000 -1.562344
176.350000 -1.576046
176.400000 -1.541788
176.450000 -1.456140
176.500000 -1.370494
176.550000 -1.295123
176.600000 -1.236884
176.650000 -1.216327
176.700000 -1.206049
176.750000 -1.206050
176.800000 -1.260864
176.850000 -1.384196
176.900000 -1.504103
176.950000 -1.596601
177.000000 -1.716508
177.050000 -1.826136
177.100000 -1.877526
177.150000 -1.874098
177.200000 -1.843266
177.250000 -1.743916
177.300000 -1.589751
177.350000 -1.462992
177.400000 -1.353363
177.450000 -1.243735
177.500000 -1.171791
177.550000 -1.151236
177.600000 -1.134107
177.650000 -1.123829
177.700000 -1.171791
177.750000 -1.240309
177.800000 -1.281419
177.850000 -1.356789
177.900000 -1.442436
177.950000 -1.462992
178.000000 -1.445862
178.050000 -1.452715
178.100000 -1.449289
178.150000 -1.428733
178.200000 -1.432158
178.250000 -1.432160
178.300000 -1.401327
178.350000 -1.411604
178.400000 -1.462992
178.450000 -1.500676
178.500000 -1.538362
178.550000 -1.637712
178.600000 -1.750767
178.650000 -1.853544
178.700000 -1.987153
178.750000 -2.113911
178.800000 -2.206411
178.850000 -2.285206
178.900000 -2.343447
178.950000 -2.322891
179.000000 -2.264651
179.050000 -2.189280
179.100000 -2.059097
179.150000 -1.863821
179.200000 -1.658268
179.250000 -1.466418
179.300000 -1.301976
179.350000 -1.195773
179.400000 -1.175217
179.450000 -1.206050
179.500000 -1.277994
179.550000 -1.391048
179.600000 -1.528085
179.650000 -1.665121
179.700000 -1.774748
179.750000 -1.836413
179.800000 -1.836414
179.850000 -1.778175
179.900000 -1.658268
179.950000 -1.476695
180.000000 -1.281421
180.050000 -1.110126
180.100000 -0.942257
180.150000 -0.781240
180.200000 -0.681890
180.250000 -0.685315
180.300000 -0.767536
180.350000 -0.907998
180.400000 -1.099848
180.450000 -1.288271
180.500000 -1.445862
180.550000 -1.572621
180.600000 -1.661695
180.650000 -1.695952
180.700000 -1.678823
180.750000 -1.637713
180.800000 -1.582899
180.850000 -1.497251
180.900000 -1.411604
180.950000 -1.353363
181.000000 -1.305401
181.050000 -1.271143
181.100000 -1.264290
181.150000 -1.267715
181.200000 -1.264291
181.250000 -1.257439
181.300000 -1.271143
181.350000 -1.288272
181.400000 -1.267716
181.450000 -1.226605
181.500000 -1.195774
181.550000 -1.164940
181.600000 -1.127255
181.650000 -1.106699
181.700000 -1.134106
181.750000 -1.188921
181.800000 -1.250586
181.850000 -1.339661
181.900000 -1.449289
181.950000 -1.562344
182.000000 -1.678824
182.050000 -1.805581
182.100000 -1.928913
182.150000 -2.024838
182.200000 -2.072800
182.250000 -2.062523
182.300000 -2.017987
182.350000 -1.942616
182.400000 -1.815859
182.450000 -1.620584
182.500000 -1.404751
182.550000 -1.199199
182.600000 -1.000496
182.650000 -0.808647
182.700000 -0.647630
182.750000 -0.527724
182.800000 -0.448929
182.850000 -0.400966
182.900000 -0.404393
182.950000 -0.493466
183.000000 -0.644205
183.050000 -0.818924
183.100000 -1.027904
183.150000 -1.264291
183.200000 -1.476696
183.250000 -1.658268
183.300000 -1.809007
183.350000 -1.898081
183.400000 -1.915210
183.450000 -1.911783
183.500000 -1.874098
183.550000 -1.750767
183.600000 -1.586323
183.650000 -1.452714
183.700000 -1.329382
183.750000 -1.188920
183.800000 -1.075866
183.850000 -1.010774
183.900000 -0.983367
183.950000 -0.997070
184.000000 -1.058737
184.050000 -1.158089
184.100000 -1.284845
184.150000 -1.394474
184.200000 -1.459566
184.250000 -1.534935
184.300000 -1.627434
184.350000 -1.685675
184.400000 -1.702804
184.450000 -1.706231
184.500000 -1.678822
184.550000 -1.613731
184.600000 -1.548639
184.650000 -1.490400
184.700000 -1.418456
184.750000 -1.356789
184.800000 -1.353364
184.850000 -1.384197
184.900000 -1.425307
184.950000 -1.480122
185.000000 -1.569195
185.050000 -1.685674
185.100000 -1.798729
185.150000 -1.877525
185.200000 -1.932340
185.250000 -1.983727
185.300000 -2.028263
185.350000 -2.028264
185.400000 -1.970024
185.450000 -1.874099
185.500000 -1.733637
185.550000 -1.562344
185.600000 -1.370493
185.650000 -1.178643
185.700000 -1.014201
185.750000 -0.894293
185.800000 -0.812072
185.850000 -0.740128
185.900000 -0.723000
185.950000 -0.764111
186.000000 -0.818924
186.050000 -0.873739
186.100000 -0.979942
186.150000 -1.116978
186.200000 -1.219753
186.250000 -1.298549
186.300000 -1.356790
186.350000 -1.377344
186.400000 -1.356789
186.450000 -1.349938
186.500000 -1.363640
186.550000 -1.377344
186.600000 -1.394474
186.650000 -1.442436
186.700000 -1.521232
186.750000 -1.593176
186.800000 -1.651415
186.850000 -1.733638
186.900000 -1.815859
186.950000 -1.829562
187.000000 -1.767896
187.050000 -1.706231
187.100000 -1.651416
187.150000 -1.528084
187.200000 -1.339661
187.250000 -1.171791
187.300000 -1.048459
187.350000 -0.921702
187.400000 -0.798370
187.450000 -0.736703
187.500000 -0.733277
187.550000 -0.746981
187.600000 -0.784666
187.650000 -0.880592
187.700000 -1.007349
187.750000 -1.127255
187.800000 -1.226607
187.850000 -1.325956
187.900000 -1.435584
187.950000 -1.569195
188.000000 -1.685675
188.050000 -1.778173
188.100000 -1.853543
188.150000 -1.911783
188.200000 -1.939191
188.250000 -1.928914
188.300000 -1.870673
188.350000 -1.764470
188.400000 -1.627435
188.450000 -1.476697
188.500000 -1.319104
188.550000 -1.140958
188.600000 -0.979942
188.650000 -0.877166
188.700000 -0.822350
188.750000 -0.815498
188.800000 -0.870313
