time[ns] Raw_signal[mV]
-11.150000 -0.237071
-11.100000 -0.158276
-11.050000 -0.058925
-11.000000 0.023297
-10.950000 0.084962
-10.900000 0.153480
-10.850000 0.187739
-10.800000 0.170609
-10.750000 0.132925
-10.700000 0.105518
-10.650000 0.067833
-10.600000 0.043851
-10.550000 0.026722
-10.500000 0.019870
-10.450000 0.026722
-10.400000 0.057555
-10.350000 0.054129
-10.300000 0.023296
-10.250000 0.033574
-10.200000 0.088388
-10.150000 0.122647
-10.100000 0.126073
-10.050000 0.126073
-10.000000 0.129499
-9.950000 0.119221
-9.900000 0.088388
-9.850000 0.050703
-9.800000 0.006167
-9.750000 -0.031518
-9.700000 -0.079480
-9.650000 -0.120591
-9.600000 -0.147998
-9.550000 -0.189109
-9.500000 -0.226794
-9.450000 -0.216516
-9.400000 -0.182257
-9.350000 -0.168553
-9.300000 -0.154850
-9.250000 -0.110313
-9.200000 -0.048647
-9.150000 -0.007537
-9.100000 0.016444
-9.050000 0.023296
-9.000000 0.026723
-8.950000 0.033574
-8.900000 0.026722
-8.850000 0.013019
-8.800000 -0.004110
-8.750000 -0.017814
-8.700000 -0.048647
-8.650000 -0.072629
-8.600000 -0.072628
-8.550000 -0.058926
-8.500000 -0.052073
-8.450000 -0.028092
-8.400000 0.030148
-8.350000 0.071258
-8.300000 0.098666
-8.250000 0.146628
-8.200000 0.211720
-8.150000 0.245979
-8.100000 0.256257
-8.050000 0.280238
-8.000000 0.321348
-7.950000 0.331626
-7.900000 0.328200
-7.850000 0.331627
-7.800000 0.345330
-7.750000 0.341904
-7.700000 0.321349
-7.650000 0.300794
-7.600000 0.263109
-7.550000 0.204869
-7.500000 0.139776
-7.450000 0.102092
-7.400000 0.091814
-7.350000 0.078110
-7.300000 0.043852
-7.250000 0.019870
-7.200000 0.009593
-7.150000 -0.007536
-7.100000 -0.014389
-7.050000 -0.010963
-7.000000 -0.010963
-6.950000 -0.031518
-6.900000 -0.048647
-6.850000 -0.048647
-6.800000 -0.072629
-6.750000 -0.120591
-6.700000 -0.168554
-6.650000 -0.213090
-6.600000 -0.247349
-6.550000 -0.274756
-6.500000 -0.312441
-6.450000 -0.360403
-6.400000 -0.394662
-6.350000 -0.415217
-6.300000 -0.425495
-6.250000 -0.398088
-6.200000 -0.326145
-6.150000 -0.285034
-6.100000 -0.281608
-6.050000 -0.247349
-6.000000 -0.185683
-5.950000 -0.158276
-5.900000 -0.165128
-5.850000 -0.171979
-5.800000 -0.213090
-5.750000 -0.302163
-5.700000 -0.411792
-5.650000 -0.504291
-5.600000 -0.572808
-5.550000 -0.620771
-5.500000 -0.672159
-5.450000 -0.692715
-5.400000 -0.634474
-5.350000 -0.538550
-5.300000 -0.466606
-5.250000 -0.380958
-5.200000 -0.257626
-5.150000 -0.151424
-5.100000 -0.093184
-5.050000 -0.052073
-5.000000 -0.014388
-4.950000 0.009592
-4.900000 0.030148
-4.850000 0.067833
-4.800000 0.108943
-4.750000 0.150055
-4.700000 0.204869
-4.650000 0.293941
-4.600000 0.420699
-4.550000 0.544032
-4.500000 0.639957
-4.450000 0.718752
-4.400000 0.780418
-4.350000 0.818103
-4.300000 0.800973
-4.250000 0.735881
-4.200000 0.663937
-4.150000 0.591994
-4.100000 0.509773
-4.050000 0.430977
-4.000000 0.348756
-3.950000 0.273386
-3.900000 0.228850
-3.850000 0.228849
-3.800000 0.245979
-3.750000 0.259683
-3.700000 0.263109
-3.650000 0.283664
-3.600000 0.293942
-3.550000 0.290516
-3.500000 0.269960
-3.450000 0.242553
-3.400000 0.239127
-3.350000 0.263109
-3.300000 0.221998
-3.250000 0.105517
-3.200000 0.054129
-3.150000 0.112370
-3.100000 0.095240
-3.050000 -0.014388
-3.000000 0.019870
-2.950000 0.143203
-2.900000 0.098666
-2.850000 -0.017815
-2.800000 -0.052073
-2.750000 -0.113739
-2.700000 -0.185683
-2.650000 -0.082906
-2.600000 0.002741
-2.550000 -0.124017
-2.500000 -0.178832
-2.450000 -0.038370
-2.400000 -0.045222
-2.350000 -0.168553
-2.300000 -0.076055
-2.250000 0.054129
-2.200000 -0.038370
-2.150000 -0.093184
-2.100000 0.040426
-2.050000 0.030148
-2.000000 -0.175405
-1.950000 -0.291886
-1.900000 -0.281608
-1.850000 -0.237072
-1.800000 -0.144573
-1.750000 -0.134294
-1.700000 -0.271330
-1.650000 -0.305589
-1.600000 -0.195960
-1.550000 -0.250775
-1.500000 -0.387810
-1.450000 -0.274756
-1.400000 -0.072629
-1.350000 -0.082906
-1.300000 -0.141146
-1.250000 -0.120591
-1.200000 -0.165128
-1.150000 -0.161702
-1.100000 0.050703
-1.050000 0.115796
-1.000000 -0.079480
-0.950000 -0.082906
-0.900000 0.180887
-0.850000 0.269961
-0.800000 0.235701
-0.750000 0.372737
-0.700000 0.492643
-0.650000 0.437829
-0.600000 0.444681
-0.550000 0.523476
-0.500000 0.451533
-0.450000 0.348756
-0.400000 0.372737
-0.350000 0.362459
-0.300000 0.239128
-0.250000 0.156906
-0.200000 0.139777
-0.150000 0.108944
-0.100000 0.088389
-0.050000 0.129499
0.000000 0.208295
0.050000 0.297367
0.100000 0.300793
0.150000 0.249405
0.200000 0.283664
0.250000 0.362460
0.300000 0.252831
0.350000 0.040425
0.400000 0.002741
0.450000 0.091814
0.500000 0.060981
0.550000 -0.014388
0.600000 -0.000685
0.650000 0.013018
0.700000 -0.031518
0.750000 0.023297
0.800000 0.198016
0.850000 0.400144
0.900000 0.674216
0.950000 1.146989
1.000000 1.835592
1.050000 2.753731
1.100000 4.031588
1.150000 5.765088
1.200000 7.943958
1.250000 10.520220
1.300000 13.531579
1.350000 16.957470
1.400000 20.623177
1.450000 24.353965
1.500000 28.187538
1.550000 32.110185
1.600000 35.936905
1.650000 39.506681
1.700000 42.846925
1.750000 45.947355
1.800000 48.684645
1.850000 51.014245
1.900000 53.045795
1.950000 54.793005
2.000000 56.153085
2.050000 57.098625
2.100000 57.681025
2.150000 57.951675
2.200000 57.852325
2.250000 57.300745
2.300000 56.307235
2.350000 54.967725
2.400000 53.330145
2.450000 51.363685
2.500000 49.106025
2.550000 46.632535
2.600000 43.956905
2.650000 41.103135
2.700000 38.194565
2.750000 35.306535
2.800000 32.397955
2.850000 29.496235
2.900000 26.786355
2.950000 24.371095
3.000000 22.202505
3.050000 20.290857
3.100000 18.773197
3.150000 17.656350
3.200000 16.864968
3.250000 16.419602
3.300000 16.340811
3.350000 16.522383
3.400000 16.888956
3.450000 17.430249
3.500000 18.111998
3.550000 18.848559
3.600000 19.591981
3.650000 20.335398
3.700000 21.030854
3.750000 21.640662
3.800000 22.175099
3.850000 22.606766
3.900000 22.891113
3.950000 23.041851
4.000000 23.113791
4.050000 23.048704
4.100000 22.774635
4.150000 22.291582
4.200000 21.647511
4.250000 20.832153
4.300000 19.828364
4.350000 18.697826
4.400000 17.505617
4.450000 16.275717
4.500000 14.997862
4.550000 13.723431
4.600000 12.538072
4.650000 11.448640
4.700000 10.417447
4.750000 9.502734
4.800000 8.749038
4.850000 8.122100
4.900000 7.591087
4.950000 7.200536
5.000000 6.912761
5.050000 6.676375
5.100000 6.556469
5.150000 6.587302
5.200000 6.720911
5.250000 6.929891
5.300000 7.227943
5.350000 7.611643
5.400000 8.050156
5.450000 8.498949
5.500000 8.923755
5.550000 9.324584
5.600000 9.704863
5.650000 10.016622
5.700000 10.222171
5.750000 10.318099
5.800000 10.314670
5.850000 10.194764
5.900000 9.999488
5.950000 9.742546
6.000000 9.423938
6.050000 9.040239
6.100000 8.632558
6.150000 8.224877
6.200000 7.813770
6.250000 7.382108
6.300000 6.936743
6.350000 6.508506
6.400000 6.100825
6.450000 5.669163
6.500000 5.216945
6.550000 4.795561
6.600000 4.387880
6.650000 3.959644
6.700000 3.538260
6.750000 3.209374
6.800000 2.962710
6.850000 2.757156
6.900000 2.592714
6.950000 2.513918
7.000000 2.527622
7.050000 2.585862
7.100000 2.654380
7.150000 2.736601
7.200000 2.849656
7.250000 2.986692
7.300000 3.110024
7.350000 3.205949
7.400000 3.274466
7.450000 3.312150
7.500000 3.308725
7.550000 3.301874
7.600000 3.308725
7.650000 3.305299
7.700000 3.301873
7.750000 3.336132
7.800000 3.387520
7.850000 3.414928
7.900000 3.449187
7.950000 3.493723
8.000000 3.521130
8.050000 3.517704
8.100000 3.480020
8.150000 3.390946
8.200000 3.260762
8.250000 3.086042
8.300000 2.859933
8.350000 2.606417
8.400000 2.359753
8.450000 2.089108
8.500000 1.791056
8.550000 1.534114
8.600000 1.342264
8.650000 1.160692
8.700000 0.999675
8.750000 0.924305
8.800000 0.896898
8.850000 0.876342
8.900000 0.886620
8.950000 0.968842
9.000000 1.071619
9.050000 1.126433
9.100000 1.160692
9.150000 1.236062
9.200000 1.352542
9.250000 1.434763
9.300000 1.493003
9.350000 1.575224
9.400000 1.657446
9.450000 1.719112
9.500000 1.777352
9.550000 1.842443
9.600000 1.904110
9.650000 1.965776
9.700000 2.006887
9.750000 2.013739
9.800000 1.986331
9.850000 1.934943
9.900000 1.852721
9.950000 1.753371
10.000000 1.660872
10.050000 1.575225
10.100000 1.469022
10.150000 1.335412
10.200000 1.188099
10.250000 1.040785
10.300000 0.896898
10.350000 0.742733
10.400000 0.574864
10.450000 0.396719
10.500000 0.204869
10.550000 0.023296
10.600000 -0.120591
10.650000 -0.250775
10.700000 -0.367255
10.750000 -0.425495
10.800000 -0.415217
10.850000 -0.367255
10.900000 -0.274756
10.950000 -0.124017
11.000000 0.026722
11.050000 0.132924
11.100000 0.259682
11.150000 0.420699
11.200000 0.540605
11.250000 0.591994
11.300000 0.619401
11.350000 0.615976
11.400000 0.581716
11.450000 0.557735
11.500000 0.544031
11.550000 0.520050
11.600000 0.509773
11.650000 0.540605
11.700000 0.581716
11.750000 0.653660
11.800000 0.763288
11.850000 0.869492
11.900000 0.941435
11.950000 1.003101
12.000000 1.054489
12.050000 1.033934
12.100000 0.944861
12.150000 0.828380
12.200000 0.681067
12.250000 0.492643
12.300000 0.293942
12.350000 0.078110
12.400000 -0.147998
12.450000 -0.343274
12.500000 -0.507717
12.550000 -0.648178
12.600000 -0.744103
12.650000 -0.788640
12.700000 -0.822899
12.750000 -0.798917
12.800000 -0.682437
12.850000 -0.576235
12.900000 -0.524847
12.950000 -0.428921
13.000000 -0.267905
13.050000 -0.117165
13.100000 -0.000685
13.150000 0.102092
13.200000 0.156906
13.250000 0.146628
13.300000 0.095240
13.350000 0.043852
13.400000 -0.004111
13.450000 -0.055499
13.500000 -0.110314
13.550000 -0.165127
13.600000 -0.178831
13.650000 -0.171979
13.700000 -0.154850
13.750000 -0.106887
13.800000 -0.038370
13.850000 0.037000
13.900000 0.084962
13.950000 0.102092
14.000000 0.098666
14.050000 0.057555
14.100000 -0.048647
14.150000 -0.182257
14.200000 -0.315867
14.250000 -0.470032
14.300000 -0.644752
14.350000 -0.778362
14.400000 -0.870861
14.450000 -0.963360
14.500000 -1.052433
14.550000 -1.069562
14.600000 -1.038729
14.650000 -1.007897
14.700000 -0.987342
14.750000 -0.929101
14.800000 -0.822898
14.850000 -0.723548
14.900000 -0.672160
14.950000 -0.627623
15.000000 -0.552253
15.050000 -0.476883
15.100000 -0.432347
15.150000 -0.377533
15.200000 -0.319293
15.250000 -0.291886
15.300000 -0.285034
15.350000 -0.261052
15.400000 -0.237072
15.450000 -0.247349
15.500000 -0.281608
15.550000 -0.315867
15.600000 -0.363830
15.650000 -0.425495
15.700000 -0.480309
15.750000 -0.531698
15.800000 -0.607068
15.850000 -0.689289
15.900000 -0.747529
15.950000 -0.781788
16.000000 -0.822899
16.050000 -0.843454
16.100000 -0.857158
16.150000 -0.881139
16.200000 -0.881139
16.250000 -0.860583
16.300000 -0.860584
16.350000 -0.850306
16.400000 -0.798917
16.450000 -0.730400
16.500000 -0.668734
16.550000 -0.583086
16.600000 -0.466606
16.650000 -0.367255
16.700000 -0.309015
16.750000 -0.261053
16.800000 -0.226794
16.850000 -0.240498
16.900000 -0.298737
16.950000 -0.384385
17.000000 -0.470032
17.050000 -0.579660
17.100000 -0.716696
17.150000 -0.826325
17.200000 -0.864009
17.250000 -0.867436
17.300000 -0.870861
17.350000 -0.809195
17.400000 -0.679011
17.450000 -0.541975
17.500000 -0.415218
17.550000 -0.285034
17.600000 -0.202813
17.650000 -0.182258
17.700000 -0.192534
17.750000 -0.230220
17.800000 -0.322719
17.850000 -0.449477
17.900000 -0.579660
17.950000 -0.706418
18.000000 -0.812621
18.050000 -0.874286
18.100000 -0.911972
18.150000 -0.929101
18.200000 -0.901694
18.250000 -0.846879
18.300000 -0.819472
18.350000 -0.771511
18.400000 -0.699567
18.450000 -0.655030
18.500000 -0.651604
18.550000 -0.603642
18.600000 -0.528272
18.650000 -0.476884
18.700000 -0.442625
18.750000 -0.391236
18.800000 -0.315867
18.850000 -0.230220
18.900000 -0.158276
18.950000 -0.103462
19.000000 -0.069203
19.050000 -0.069203
19.100000 -0.120592
19.150000 -0.213090
19.200000 -0.319293
19.250000 -0.473458
19.300000 -0.668734
19.350000 -0.836602
19.400000 -0.980489
19.450000 -1.151784
19.500000 -1.312801
19.550000 -1.398448
19.600000 -1.429281
19.650000 -1.449837
19.700000 -1.453263
19.750000 -1.436133
19.800000 -1.425856
19.850000 -1.415578
19.900000 -1.374466
19.950000 -1.312801
20.000000 -1.288820
20.050000 -1.309375
20.100000 -1.319653
20.150000 -1.271690
20.200000 -1.199746
20.250000 -1.151784
20.300000 -1.093544
20.350000 -0.973638
20.400000 -0.816047
20.450000 -0.658456
20.500000 -0.494013
20.550000 -0.332997
20.600000 -0.209664
20.650000 -0.100036
20.700000 -0.021240
20.750000 -0.024666
20.800000 -0.069203
20.850000 -0.103461
20.900000 -0.168554
20.950000 -0.295311
21.000000 -0.394662
21.050000 -0.428922
21.100000 -0.466606
21.150000 -0.528273
21.200000 -0.555679
21.250000 -0.569383
21.300000 -0.586512
21.350000 -0.579660
21.400000 -0.562531
21.450000 -0.583087
21.500000 -0.641327
21.550000 -0.726974
21.600000 -0.816047
21.650000 -0.915397
21.700000 -1.018174
21.750000 -1.144932
21.800000 -1.264839
21.850000 -1.367615
21.900000 -1.466966
21.950000 -1.545762
22.000000 -1.542335
22.050000 -1.480670
22.100000 -1.415578
22.150000 -1.329931
22.200000 -1.182618
22.250000 -1.004471
22.300000 -0.850306
22.350000 -0.720122
22.400000 -0.603642
22.450000 -0.504291
22.500000 -0.425495
22.550000 -0.329570
22.600000 -0.254201
22.650000 -0.226794
22.700000 -0.202812
22.750000 -0.137720
22.800000 -0.093184
22.850000 -0.124017
22.900000 -0.168554
22.950000 -0.171980
23.000000 -0.206238
23.050000 -0.315867
23.100000 -0.463180
23.150000 -0.624197
23.200000 -0.785214
23.250000 -0.956509
23.300000 -1.124377
23.350000 -1.261413
23.400000 -1.371041
23.450000 -1.463541
23.500000 -1.501224
23.550000 -1.470392
23.600000 -1.405300
23.650000 -1.343634
23.700000 -1.254561
23.750000 -1.124377
23.800000 -1.028452
23.850000 -0.987342
23.900000 -0.973637
23.950000 -0.953083
24.000000 -0.953082
24.050000 -0.983915
24.100000 -1.014749
24.150000 -1.021600
24.200000 -1.021601
24.250000 -1.028452
24.300000 -1.021600
24.350000 -0.973637
24.400000 -0.911972
24.450000 -0.853731
24.500000 -0.802344
24.550000 -0.750955
24.600000 -0.699567
24.650000 -0.685863
24.700000 -0.713270
24.750000 -0.757806
24.800000 -0.802343
24.850000 -0.864009
24.900000 -0.949657
24.950000 -1.028452
25.000000 -1.096970
25.050000 -1.175765
25.100000 -1.223728
25.150000 -1.237432
25.200000 -1.237431
25.250000 -1.234005
25.300000 -1.213450
25.350000 -1.165487
25.400000 -1.093544
25.450000 -1.038730
25.500000 -1.018175
25.550000 -1.004470
25.600000 -0.983915
25.650000 -0.980490
25.700000 -1.038730
25.750000 -1.103821
25.800000 -1.134655
25.850000 -1.158636
25.900000 -1.206599
25.950000 -1.210025
26.000000 -1.141506
26.050000 -1.055860
26.100000 -0.959935
26.150000 -0.788639
26.200000 -0.562531
26.250000 -0.377533
26.300000 -0.240497
26.350000 -0.103462
26.400000 0.002741
26.450000 0.019871
26.500000 -0.038370
26.550000 -0.134294
26.600000 -0.254200
26.650000 -0.422069
26.700000 -0.644752
26.750000 -0.877713
26.800000 -1.086693
26.850000 -1.278542
26.900000 -1.453262
26.950000 -1.586872
27.000000 -1.699927
27.050000 -1.792426
27.100000 -1.833536
27.150000 -1.823258
27.200000 -1.816407
27.250000 -1.826685
27.300000 -1.830110
27.350000 -1.836963
27.400000 -1.840388
27.450000 -1.816407
27.500000 -1.782148
27.550000 -1.737612
27.600000 -1.627982
27.650000 -1.490947
27.700000 -1.381319
27.750000 -1.237432
27.800000 -1.052434
27.850000 -0.905120
27.900000 -0.829750
27.950000 -0.740677
28.000000 -0.658456
28.050000 -0.644753
28.100000 -0.675585
28.150000 -0.706418
28.200000 -0.730400
28.250000 -0.771510
28.300000 -0.833176
28.350000 -0.898268
28.400000 -0.922249
28.450000 -0.915398
28.500000 -0.908546
28.550000 -0.915397
28.600000 -0.929101
28.650000 -0.956509
28.700000 -1.018174
28.750000 -1.086692
28.800000 -1.144932
28.850000 -1.206599
28.900000 -1.257987
28.950000 -1.281968
29.000000 -1.299097
29.050000 -1.319653
29.100000 -1.285394
29.150000 -1.203172
29.200000 -1.141507
29.250000 -1.103821
29.300000 -1.055859
29.350000 -1.021600
29.400000 -1.035304
29.450000 -1.055859
29.500000 -1.083267
29.550000 -1.134654
29.600000 -1.168914
29.650000 -1.168914
29.700000 -1.158636
29.750000 -1.127803
29.800000 -1.055859
29.850000 -0.983916
29.900000 -0.911972
29.950000 -0.802343
30.000000 -0.685863
30.050000 -0.607068
30.100000 -0.562531
30.150000 -0.538550
30.200000 -0.548827
30.250000 -0.593364
30.300000 -0.672159
30.350000 -0.771511
30.400000 -0.870861
30.450000 -0.987341
30.500000 -1.148359
30.550000 -1.309375
30.600000 -1.412151
30.650000 -1.511502
30.700000 -1.604001
30.750000 -1.621131
30.800000 -1.586872
30.850000 -1.559465
30.900000 -1.521780
30.950000 -1.453263
31.000000 -1.377893
31.050000 -1.305949
31.100000 -1.254561
31.150000 -1.230580
31.200000 -1.206599
31.250000 -1.182617
31.300000 -1.203173
31.350000 -1.237431
31.400000 -1.237432
31.450000 -1.234006
31.500000 -1.244283
31.550000 -1.192895
31.600000 -1.110674
31.650000 -1.059285
31.700000 -0.997619
31.750000 -0.884564
31.800000 -0.816047
31.850000 -0.816047
31.900000 -0.792065
31.950000 -0.733826
32.000000 -0.720122
32.050000 -0.754381
32.100000 -0.778362
32.150000 -0.785214
32.200000 -0.802343
32.250000 -0.812621
32.300000 -0.819472
32.350000 -0.826324
32.400000 -0.826324
32.450000 -0.833176
32.500000 -0.846880
32.550000 -0.833176
32.600000 -0.822899
32.650000 -0.877713
32.700000 -0.973638
32.750000 -1.035304
32.800000 -1.086693
32.850000 -1.172340
32.900000 -1.257986
32.950000 -1.312801
33.000000 -1.323078
33.050000 -1.292246
33.100000 -1.230580
33.150000 -1.162062
33.200000 -1.079840
33.250000 -0.959934
33.300000 -0.826325
33.350000 -0.713270
33.400000 -0.637900
33.450000 -0.603641
33.500000 -0.596790
33.550000 -0.600216
33.600000 -0.637901
33.650000 -0.730399
33.700000 -0.843454
33.750000 -0.946231
33.800000 -1.062711
33.850000 -1.192895
33.900000 -1.336782
33.950000 -1.442984
34.000000 -1.514929
34.050000 -1.607427
34.100000 -1.706779
34.150000 -1.765018
34.200000 -1.806129
34.250000 -1.891776
34.300000 -1.967146
34.350000 -1.973997
34.400000 -1.960294
34.450000 -1.960294
34.500000 -1.922610
34.550000 -1.833537
34.600000 -1.710204
34.650000 -1.556039
34.700000 -1.395023
34.750000 -1.251135
34.800000 -1.114099
34.850000 -0.983916
34.900000 -0.908546
34.950000 -0.853732
35.000000 -0.809195
35.050000 -0.822898
35.100000 -0.894843
35.150000 -0.963360
35.200000 -1.035304
35.250000 -1.151784
35.300000 -1.251135
35.350000 -1.281968
35.400000 -1.281968
35.450000 -1.281968
35.500000 -1.257986
35.550000 -1.189469
35.600000 -1.093544
35.650000 -0.987341
35.700000 -0.911972
35.750000 -0.874287
35.800000 -0.846880
35.850000 -0.833176
35.900000 -0.870861
35.950000 -0.932527
36.000000 -0.963361
36.050000 -0.994193
36.100000 -1.083266
36.150000 -1.182617
36.200000 -1.244284
36.250000 -1.312801
36.300000 -1.381319
36.350000 -1.395022
36.400000 -1.371041
36.450000 -1.353911
36.500000 -1.340208
36.550000 -1.299098
36.600000 -1.244283
36.650000 -1.196321
36.700000 -1.151784
36.750000 -1.103822
36.800000 -1.062711
36.850000 -1.052433
36.900000 -1.055859
36.950000 -1.021600
37.000000 -0.990767
37.050000 -1.007897
37.100000 -1.042156
37.150000 -1.038729
37.200000 -1.066136
37.250000 -1.151784
37.300000 -1.223727
37.350000 -1.271691
37.400000 -1.323079
37.450000 -1.350486
37.500000 -1.340208
37.550000 -1.329930
37.600000 -1.316226
37.650000 -1.264838
37.700000 -1.216876
37.750000 -1.182617
37.800000 -1.151784
37.850000 -1.134655
37.900000 -1.138081
37.950000 -1.144932
38.000000 -1.162062
38.050000 -1.223728
38.100000 -1.288820
38.150000 -1.326505
38.200000 -1.360764
38.250000 -1.408726
38.300000 -1.449837
38.350000 -1.490947
38.400000 -1.538909
38.450000 -1.580021
38.500000 -1.621131
38.550000 -1.675946
38.600000 -1.741037
38.650000 -1.785574
38.700000 -1.812981
38.750000 -1.826685
38.800000 -1.802703
38.850000 -1.751315
38.900000 -1.696500
38.950000 -1.614279
39.000000 -1.477244
39.050000 -1.319653
39.100000 -1.192894
39.150000 -1.093544
39.200000 -0.983916
39.250000 -0.898268
39.300000 -0.877713
39.350000 -0.884565
39.400000 -0.901694
39.450000 -0.932527
39.500000 -0.966786
39.550000 -0.987341
39.600000 -0.997619
39.650000 -1.021600
39.700000 -1.062711
39.750000 -1.083266
39.800000 -1.086692
39.850000 -1.124377
39.900000 -1.210024
39.950000 -1.319653
40.000000 -1.425855
40.050000 -1.556039
40.100000 -1.699927
40.150000 -1.840387
40.200000 -1.950017
40.250000 -2.039090
40.300000 -2.090478
40.350000 -2.097329
40.400000 -2.063070
40.450000 -2.004830
40.500000 -1.929461
40.550000 -1.819833
40.600000 -1.699927
40.650000 -1.610854
40.700000 -1.538910
40.750000 -1.446411
40.800000 -1.374467
40.850000 -1.329931
40.900000 -1.278542
40.950000 -1.210024
41.000000 -1.144933
41.050000 -1.107248
41.100000 -1.079840
41.150000 -1.042156
41.200000 -1.001045
41.250000 -0.980490
41.300000 -0.990767
41.350000 -1.025026
41.400000 -1.059285
41.450000 -1.120951
41.500000 -1.210025
41.550000 -1.275116
41.600000 -1.278542
41.650000 -1.275117
41.700000 -1.299098
41.750000 -1.319653
41.800000 -1.302523
41.850000 -1.288820
41.900000 -1.275116
41.950000 -1.237431
42.000000 -1.199747
42.050000 -1.182617
42.100000 -1.162062
42.150000 -1.131229
42.200000 -1.124377
42.250000 -1.138080
42.300000 -1.127803
42.350000 -1.110673
42.400000 -1.117525
42.450000 -1.151784
42.500000 -1.206598
42.550000 -1.268265
42.600000 -1.323078
42.650000 -1.367615
42.700000 -1.415578
42.750000 -1.463540
42.800000 -1.497799
42.850000 -1.538910
42.900000 -1.573168
42.950000 -1.566316
43.000000 -1.508077
43.050000 -1.442985
43.100000 -1.405300
43.150000 -1.367616
43.200000 -1.292246
43.250000 -1.199747
43.300000 -1.120951
43.350000 -1.059285
43.400000 -0.997619
43.450000 -0.973638
43.500000 -0.980490
43.550000 -0.983915
43.600000 -1.007897
43.650000 -1.076414
43.700000 -1.162062
43.750000 -1.244283
43.800000 -1.323078
43.850000 -1.408726
43.900000 -1.484095
43.950000 -1.532058
44.000000 -1.552613
44.050000 -1.538909
44.100000 -1.494373
44.150000 -1.419003
44.200000 -1.326504
44.250000 -1.227153
44.300000 -1.114100
44.350000 -0.994193
44.400000 -0.881139
44.450000 -0.785214
44.500000 -0.716696
44.550000 -0.679011
44.600000 -0.696141
44.650000 -0.754381
44.700000 -0.822899
44.750000 -0.898269
44.800000 -1.007896
44.850000 -1.120951
44.900000 -1.213450
44.950000 -1.302523
45.000000 -1.391596
45.050000 -1.453263
45.100000 -1.484095
45.150000 -1.494373
45.200000 -1.480669
45.250000 -1.456688
45.300000 -1.463540
45.350000 -1.463540
45.400000 -1.415578
45.450000 -1.371041
45.500000 -1.360763
45.550000 -1.312801
45.600000 -1.203173
45.650000 -1.107247
45.700000 -1.045581
45.750000 -0.980490
45.800000 -0.932527
45.850000 -0.959934
45.900000 -1.035304
45.950000 -1.117525
46.000000 -1.240857
46.050000 -1.425855
46.100000 -1.631408
46.150000 -1.806129
46.200000 -1.960294
46.250000 -2.090478
46.300000 -2.172699
46.350000 -2.186403
46.400000 -2.141866
46.450000 -2.059645
46.500000 -1.943165
46.550000 -1.778722
46.600000 -1.590298
46.650000 -1.436132
46.700000 -1.326505
46.750000 -1.223727
46.800000 -1.127803
46.850000 -1.062711
46.900000 -1.018175
46.950000 -0.980489
47.000000 -0.959934
47.050000 -0.987342
47.100000 -1.028452
47.150000 -1.066137
47.200000 -1.086692
47.250000 -1.110673
47.300000 -1.131228
47.350000 -1.127802
47.400000 -1.093544
47.450000 -1.076414
47.500000 -1.086692
47.550000 -1.090119
47.600000 -1.069562
47.650000 -1.055859
47.700000 -1.059285
47.750000 -1.062711
47.800000 -1.069563
47.850000 -1.100396
47.900000 -1.158635
47.950000 -1.234006
48.000000 -1.302523
48.050000 -1.371041
48.100000 -1.453263
48.150000 -1.528632
48.200000 -1.549187
48.250000 -1.556039
48.300000 -1.576595
48.350000 -1.559465
48.400000 -1.497799
48.450000 -1.429281
48.500000 -1.353912
48.550000 -1.278542
48.600000 -1.230580
48.650000 -1.192894
48.700000 -1.141506
48.750000 -1.114099
48.800000 -1.141506
48.850000 -1.189469
48.900000 -1.230580
48.950000 -1.271690
49.000000 -1.312801
49.050000 -1.340208
49.100000 -1.357337
49.150000 -1.364189
49.200000 -1.360764
49.250000 -1.357337
49.300000 -1.360763
49.350000 -1.350486
49.400000 -1.329930
49.450000 -1.329930
49.500000 -1.343634
49.550000 -1.329930
49.600000 -1.316227
49.650000 -1.329930
49.700000 -1.329930
49.750000 -1.281968
49.800000 -1.240857
49.850000 -1.220302
49.900000 -1.196321
49.950000 -1.182617
50.000000 -1.196320
50.050000 -1.240857
50.100000 -1.309375
50.150000 -1.388170
50.200000 -1.460114
50.250000 -1.545762
50.300000 -1.645112
50.350000 -1.699927
50.400000 -1.727333
50.450000 -1.765018
50.500000 -1.775296
50.550000 -1.710204
50.600000 -1.617705
50.650000 -1.532058
50.700000 -1.408726
50.750000 -1.230580
50.800000 -1.083266
50.850000 -0.970212
50.900000 -0.860584
50.950000 -0.774936
51.000000 -0.730400
51.050000 -0.733825
51.100000 -0.785214
51.150000 -0.877712
51.200000 -1.004471
51.250000 -1.165488
51.300000 -1.347060
51.350000 -1.518354
51.400000 -1.658816
51.450000 -1.765018
51.500000 -1.840388
51.550000 -1.902054
51.600000 -1.926035
51.650000 -1.908905
51.700000 -1.888350
51.750000 -1.860943
51.800000 -1.799277
51.850000 -1.751315
51.900000 -1.741037
51.950000 -1.720481
52.000000 -1.689649
52.050000 -1.696501
52.100000 -1.706778
52.150000 -1.696501
52.200000 -1.689649
52.250000 -1.679371
52.300000 -1.641687
52.350000 -1.593724
52.400000 -1.559465
52.450000 -1.514929
52.500000 -1.466966
52.550000 -1.436133
52.600000 -1.419003
52.650000 -1.436133
52.700000 -1.494373
52.750000 -1.562891
52.800000 -1.624557
52.850000 -1.699926
52.900000 -1.788999
52.950000 -1.850666
53.000000 -1.902054
53.050000 -1.939739
53.100000 -1.943164
53.150000 -1.932887
53.200000 -1.912332
53.250000 -1.874647
53.300000 -1.819832
53.350000 -1.761592
53.400000 -1.679371
53.450000 -1.597150
53.500000 -1.538910
53.550000 -1.487522
53.600000 -1.408725
53.650000 -1.340208
53.700000 -1.326505
53.750000 -1.343634
53.800000 -1.360764
53.850000 -1.381318
53.900000 -1.429282
53.950000 -1.508077
54.000000 -1.600576
54.050000 -1.689648
54.100000 -1.782147
54.150000 -1.874646
54.200000 -1.946591
54.250000 -1.984276
54.300000 -1.987701
54.350000 -1.956868
54.400000 -1.902054
54.450000 -1.836962
54.500000 -1.768444
54.550000 -1.679371
54.600000 -1.556039
54.650000 -1.446410
54.700000 -1.391596
54.750000 -1.343634
54.800000 -1.261413
54.850000 -1.186043
54.900000 -1.155210
54.950000 -1.158636
55.000000 -1.179191
55.050000 -1.199746
55.100000 -1.230580
55.150000 -1.281968
55.200000 -1.329930
55.250000 -1.371041
55.300000 -1.412151
55.350000 -1.463540
55.400000 -1.490947
55.450000 -1.511503
55.500000 -1.545762
55.550000 -1.569743
55.600000 -1.556039
55.650000 -1.552613
55.700000 -1.590298
55.750000 -1.621131
55.800000 -1.624557
55.850000 -1.624557
55.900000 -1.662242
55.950000 -1.720481
56.000000 -1.782148
56.050000 -1.823259
56.100000 -1.847240
56.150000 -1.871221
56.200000 -1.884924
56.250000 -1.878072
56.300000 -1.860943
56.350000 -1.826684
56.400000 -1.747889
56.450000 -1.655390
56.500000 -1.586872
56.550000 -1.535483
56.600000 -1.484095
56.650000 -1.425856
56.700000 -1.377892
56.750000 -1.347059
56.800000 -1.350486
56.850000 -1.357337
56.900000 -1.377893
56.950000 -1.391597
57.000000 -1.401874
57.050000 -1.415578
57.100000 -1.442984
57.150000 -1.460114
57.200000 -1.460115
57.250000 -1.473817
57.300000 -1.504651
57.350000 -1.535483
57.400000 -1.559465
57.450000 -1.593724
57.500000 -1.648538
57.550000 -1.699926
57.600000 -1.734185
57.650000 -1.761593
57.700000 -1.775296
57.750000 -1.751315
57.800000 -1.699926
57.850000 -1.621131
57.900000 -1.528632
57.950000 -1.388171
58.000000 -1.203173
58.050000 -1.011322
58.100000 -0.846880
58.150000 -0.702993
58.200000 -0.583086
58.250000 -0.511143
58.300000 -0.483735
58.350000 -0.500865
58.400000 -0.565957
58.450000 -0.679011
58.500000 -0.822899
58.550000 -0.977064
58.600000 -1.124377
58.650000 -1.247709
58.700000 -1.364189
58.750000 -1.473818
58.800000 -1.552613
58.850000 -1.590297
58.900000 -1.617705
58.950000 -1.634834
59.000000 -1.627983
59.050000 -1.617705
59.100000 -1.614279
59.150000 -1.610854
59.200000 -1.597150
59.250000 -1.586872
59.300000 -1.566316
59.350000 -1.535484
59.400000 -1.504651
59.450000 -1.494373
59.500000 -1.490948
59.550000 -1.463540
59.600000 -1.419004
59.650000 -1.405300
59.700000 -1.415578
59.750000 -1.377893
59.800000 -1.305949
59.850000 -1.251135
59.900000 -1.192895
59.950000 -1.083266
60.000000 -0.946231
60.050000 -0.833176
60.100000 -0.723548
60.150000 -0.603641
60.200000 -0.500865
60.250000 -0.432347
60.300000 -0.415218
60.350000 -0.456328
60.400000 -0.541976
60.450000 -0.651604
60.500000 -0.788639
60.550000 -0.953082
60.600000 -1.120951
60.650000 -1.278542
60.700000 -1.405300
60.750000 -1.487521
60.800000 -1.549187
60.850000 -1.610853
60.900000 -1.651964
60.950000 -1.662242
61.000000 -1.645112
61.050000 -1.624556
61.100000 -1.580020
61.150000 -1.514929
61.200000 -1.439559
61.250000 -1.384745
61.300000 -1.326504
61.350000 -1.247709
61.400000 -1.155210
61.450000 -1.066137
61.500000 -0.980490
61.550000 -0.908545
61.600000 -0.864009
61.650000 -0.843454
61.700000 -0.836602
61.750000 -0.833176
61.800000 -0.860583
61.850000 -0.935953
61.900000 -1.028452
61.950000 -1.100395
62.000000 -1.155210
62.050000 -1.240857
62.100000 -1.347060
62.150000 -1.415578
62.200000 -1.453262
62.250000 -1.470392
62.300000 -1.473817
62.350000 -1.446410
62.400000 -1.408726
62.450000 -1.398448
62.500000 -1.408726
62.550000 -1.429281
62.600000 -1.449837
62.650000 -1.484095
62.700000 -1.518354
62.750000 -1.545761
62.800000 -1.576595
62.850000 -1.610853
62.900000 -1.645112
62.950000 -1.658816
63.000000 -1.641686
63.050000 -1.617705
63.100000 -1.600576
63.150000 -1.573169
63.200000 -1.528632
63.250000 -1.504651
63.300000 -1.514929
63.350000 -1.532058
63.400000 -1.552613
63.450000 -1.600576
63.500000 -1.675945
63.550000 -1.734185
63.600000 -1.761593
63.650000 -1.775296
63.700000 -1.771870
63.750000 -1.710204
63.800000 -1.593724
63.850000 -1.480669
63.900000 -1.384744
63.950000 -1.254561
64.000000 -1.093544
64.050000 -0.970211
64.100000 -0.905120
64.150000 -0.853731
64.200000 -0.826325
64.250000 -0.857157
64.300000 -0.915398
64.350000 -0.990767
64.400000 -1.083266
64.450000 -1.182617
64.500000 -1.264838
64.550000 -1.326504
64.600000 -1.364189
64.650000 -1.395022
64.700000 -1.436133
64.750000 -1.460114
64.800000 -1.432707
64.850000 -1.401874
64.900000 -1.391597
64.950000 -1.357337
65.000000 -1.292245
65.050000 -1.223728
65.100000 -1.158636
65.150000 -1.093544
65.200000 -1.018174
65.250000 -0.939379
65.300000 -0.894843
65.350000 -0.901694
65.400000 -0.911972
65.450000 -0.939379
65.500000 -1.052434
65.550000 -1.192894
65.600000 -1.312801
65.650000 -1.449837
65.700000 -1.621131
65.750000 -1.754741
65.800000 -1.833536
65.850000 -1.891777
65.900000 -1.891776
65.950000 -1.840388
66.000000 -1.765019
66.050000 -1.641686
66.100000 -1.484096
66.150000 -1.343634
66.200000 -1.244283
66.250000 -1.165488
66.300000 -1.144933
66.350000 -1.168914
66.400000 -1.186043
66.450000 -1.213450
66.500000 -1.295671
66.550000 -1.391596
66.600000 -1.432707
66.650000 -1.439559
66.700000 -1.436133
66.750000 -1.422430
66.800000 -1.377893
66.850000 -1.333356
66.900000 -1.288820
66.950000 -1.237431
67.000000 -1.182617
67.050000 -1.144932
67.100000 -1.155210
67.150000 -1.199747
67.200000 -1.234005
67.250000 -1.275116
67.300000 -1.340208
67.350000 -1.388171
67.400000 -1.401874
67.450000 -1.429282
67.500000 -1.442985
67.550000 -1.408725
67.600000 -1.357337
67.650000 -1.316227
67.700000 -1.261413
67.750000 -1.196321
67.800000 -1.138080
67.850000 -1.076414
67.900000 -0.990767
67.950000 -0.901694
68.000000 -0.819472
68.050000 -0.737252
68.100000 -0.648178
68.150000 -0.583086
68.200000 -0.548828
68.250000 -0.565957
68.300000 -0.624197
68.350000 -0.706418
68.400000 -0.809195
68.450000 -0.935953
68.500000 -1.079840
68.550000 -1.213450
68.600000 -1.323079
68.650000 -1.415577
68.700000 -1.456688
68.750000 -1.422430
68.800000 -1.350486
68.850000 -1.288819
68.900000 -1.227153
68.950000 -1.127803
69.000000 -1.018174
69.050000 -0.953082
69.100000 -0.946231
69.150000 -0.959934
69.200000 -0.994193
69.250000 -1.083266
69.300000 -1.189469
69.350000 -1.271690
69.400000 -1.353912
69.450000 -1.432708
69.500000 -1.484096
69.550000 -1.521780
69.600000 -1.542335
69.650000 -1.514929
69.700000 -1.470392
69.750000 -1.432707
69.800000 -1.377892
69.850000 -1.326504
69.900000 -1.299097
69.950000 -1.295671
70.000000 -1.285393
70.050000 -1.271691
70.100000 -1.261413
70.150000 -1.227154
70.200000 -1.165488
70.250000 -1.090118
70.300000 -1.001045
70.350000 -0.905120
70.400000 -0.809195
70.450000 -0.744103
70.500000 -0.733825
70.550000 -0.757807
70.600000 -0.826325
70.650000 -0.942804
70.700000 -1.093544
70.750000 -1.240857
70.800000 -1.398448
70.850000 -1.583446
70.900000 -1.706778
70.950000 -1.754740
71.000000 -1.785573
71.050000 -1.830111
71.100000 -1.833537
71.150000 -1.789000
71.200000 -1.723908
71.250000 -1.641686
71.300000 -1.566317
71.350000 -1.487522
71.400000 -1.401875
71.450000 -1.343634
71.500000 -1.347059
71.550000 -1.360763
71.600000 -1.360764
71.650000 -1.391597
71.700000 -1.442985
71.750000 -1.487521
71.800000 -1.552613
71.850000 -1.617705
71.900000 -1.641686
71.950000 -1.648538
72.000000 -1.672519
72.050000 -1.682797
72.100000 -1.662241
72.150000 -1.645113
72.200000 -1.631409
72.250000 -1.586872
72.300000 -1.542336
72.350000 -1.494373
72.400000 -1.429281
72.450000 -1.398448
72.500000 -1.422429
72.550000 -1.436133
72.600000 -1.401874
72.650000 -1.391596
72.700000 -1.419003
72.750000 -1.422429
72.800000 -1.391596
72.850000 -1.381319
72.900000 -1.381319
72.950000 -1.367615
73.000000 -1.336782
73.050000 -1.292245
73.100000 -1.261413
73.150000 -1.247709
73.200000 -1.240857
73.250000 -1.213450
73.300000 -1.199746
73.350000 -1.206598
73.400000 -1.223728
73.450000 -1.237431
73.500000 -1.240857
73.550000 -1.240857
73.600000 -1.261412
73.650000 -1.278542
73.700000 -1.257986
73.750000 -1.220302
73.800000 -1.210024
73.850000 -1.223728
73.900000 -1.234006
73.950000 -1.247709
74.000000 -1.302523
74.050000 -1.395022
74.100000 -1.484095
74.150000 -1.556039
74.200000 -1.627983
74.250000 -1.686223
74.300000 -1.734185
74.350000 -1.765018
74.400000 -1.751315
74.450000 -1.682797
74.500000 -1.580021
74.550000 -1.456689
74.600000 -1.316227
74.650000 -1.179191
74.700000 -1.066137
74.750000 -0.963360
74.800000 -0.881138
74.850000 -0.857158
74.900000 -0.894842
74.950000 -0.956508
75.000000 -1.035303
75.050000 -1.127803
75.100000 -1.220301
75.150000 -1.292246
75.200000 -1.336782
75.250000 -1.353911
75.300000 -1.350486
75.350000 -1.326504
75.400000 -1.275116
75.450000 -1.213450
75.500000 -1.165488
75.550000 -1.138081
75.600000 -1.117525
75.650000 -1.141507
75.700000 -1.220302
75.750000 -1.305949
75.800000 -1.388170
75.850000 -1.497799
75.900000 -1.607428
75.950000 -1.662241
76.000000 -1.693075
76.050000 -1.723908
76.100000 -1.706779
76.150000 -1.638261
76.200000 -1.566317
76.250000 -1.504651
76.300000 -1.439559
76.350000 -1.367615
76.400000 -1.305949
76.450000 -1.292246
76.500000 -1.336782
76.550000 -1.401874
76.600000 -1.449836
76.650000 -1.528632
76.700000 -1.645112
76.750000 -1.720482
76.800000 -1.730760
76.850000 -1.744463
76.900000 -1.744463
76.950000 -1.686223
77.000000 -1.610853
77.050000 -1.542335
77.100000 -1.442984
77.150000 -1.319652
77.200000 -1.227154
77.250000 -1.144932
77.300000 -1.049007
77.350000 -0.977063
77.400000 -0.942805
77.450000 -0.898268
77.500000 -0.894842
77.550000 -0.942805
77.600000 -0.990767
77.650000 -1.045581
77.700000 -1.151784
77.750000 -1.244283
77.800000 -1.275117
77.850000 -1.319653
77.900000 -1.391596
77.950000 -1.412152
78.000000 -1.357338
78.050000 -1.292246
78.100000 -1.213450
78.150000 -1.093544
78.200000 -0.966786
78.250000 -0.867436
78.300000 -0.774936
78.350000 -0.699567
78.400000 -0.672159
78.450000 -0.699566
78.500000 -0.778362
78.550000 -0.870861
78.600000 -0.963360
78.650000 -1.055859
78.700000 -1.134654
78.750000 -1.158636
78.800000 -1.127803
78.850000 -1.079840
78.900000 -1.018174
78.950000 -0.905120
79.000000 -0.761232
79.050000 -0.648178
79.100000 -0.583086
79.150000 -0.562531
79.200000 -0.589938
79.250000 -0.637900
79.300000 -0.716696
79.350000 -0.802343
79.400000 -0.898269
79.450000 -1.021601
79.500000 -1.168914
79.550000 -1.271690
79.600000 -1.302523
79.650000 -1.333356
79.700000 -1.374467
79.750000 -1.364189
79.800000 -1.312800
79.850000 -1.275116
79.900000 -1.234005
79.950000 -1.168913
80.000000 -1.134654
80.050000 -1.155210
80.100000 -1.155210
80.150000 -1.141507
80.200000 -1.158636
80.250000 -1.216876
80.300000 -1.281967
80.350000 -1.347060
80.400000 -1.412151
80.450000 -1.480669
80.500000 -1.552613
80.550000 -1.627983
80.600000 -1.658816
80.650000 -1.669094
80.700000 -1.689648
80.750000 -1.675945
80.800000 -1.604001
80.850000 -1.514929
80.900000 -1.436133
80.950000 -1.340208
81.000000 -1.254561
81.050000 -1.206599
81.100000 -1.175765
81.150000 -1.144933
81.200000 -1.158636
81.250000 -1.220302
81.300000 -1.285394
81.350000 -1.364189
81.400000 -1.463540
81.450000 -1.559465
81.500000 -1.641687
81.550000 -1.696501
81.600000 -1.682797
81.650000 -1.645112
81.700000 -1.621131
81.750000 -1.562891
81.800000 -1.453262
81.850000 -1.364189
81.900000 -1.305949
81.950000 -1.199747
82.000000 -1.066137
82.050000 -0.994193
82.100000 -0.970212
82.150000 -0.932527
82.200000 -0.905119
82.250000 -0.922249
82.300000 -0.942805
82.350000 -0.929101
82.400000 -0.932527
82.450000 -0.946230
82.500000 -0.939379
82.550000 -0.922249
82.600000 -0.905120
82.650000 -0.877713
82.700000 -0.857158
82.750000 -0.850306
82.800000 -0.846880
82.850000 -0.840028
82.900000 -0.860583
82.950000 -0.887990
83.000000 -0.884564
83.050000 -0.881138
83.100000 -0.891417
83.150000 -0.887990
83.200000 -0.867435
83.250000 -0.874287
83.300000 -0.915397
83.350000 -0.959934
83.400000 -0.983915
83.450000 -0.994193
83.500000 -1.028452
83.550000 -1.096970
83.600000 -1.158636
83.650000 -1.213450
83.700000 -1.292245
83.750000 -1.381318
83.800000 -1.432707
83.850000 -1.470392
83.900000 -1.518354
83.950000 -1.528631
84.000000 -1.487521
84.050000 -1.436133
84.100000 -1.377893
84.150000 -1.281968
84.200000 -1.192894
84.250000 -1.151784
84.300000 -1.120951
84.350000 -1.079840
84.400000 -1.055859
84.450000 -1.069563
84.500000 -1.110674
84.550000 -1.141506
84.600000 -1.165488
84.650000 -1.203172
84.700000 -1.261413
84.750000 -1.292246
84.800000 -1.292246
84.850000 -1.299098
84.900000 -1.295672
84.950000 -1.240857
85.000000 -1.175765
85.050000 -1.138080
85.100000 -1.079840
85.150000 -0.987341
85.200000 -0.918824
85.250000 -0.870861
85.300000 -0.788639
85.350000 -0.682437
85.400000 -0.600216
85.450000 -0.528272
85.500000 -0.466606
85.550000 -0.425496
85.600000 -0.391236
85.650000 -0.363830
85.700000 -0.360403
85.750000 -0.353551
85.800000 -0.353551
85.850000 -0.422069
85.900000 -0.517995
85.950000 -0.593364
86.000000 -0.679012
86.050000 -0.822899
86.100000 -0.970212
86.150000 -1.079840
86.200000 -1.182617
86.250000 -1.278542
86.300000 -1.333356
86.350000 -1.347060
86.400000 -1.323078
86.450000 -1.271690
86.500000 -1.192895
86.550000 -1.110673
86.600000 -1.028452
86.650000 -0.956509
86.700000 -0.894842
86.750000 -0.840028
86.800000 -0.785214
86.850000 -0.754381
86.900000 -0.757806
86.950000 -0.754381
87.000000 -0.723548
87.050000 -0.706418
87.100000 -0.696141
87.150000 -0.651605
87.200000 -0.617345
87.250000 -0.624197
87.300000 -0.644752
87.350000 -0.665308
87.400000 -0.733825
87.450000 -0.853732
87.500000 -0.959934
87.550000 -1.069562
87.600000 -1.189469
87.650000 -1.295671
87.700000 -1.398448
87.750000 -1.490947
87.800000 -1.532057
87.850000 -1.545761
87.900000 -1.583446
87.950000 -1.614280
88.000000 -1.607427
88.050000 -1.573168
88.100000 -1.552613
88.150000 -1.521780
88.200000 -1.508077
88.250000 -1.514928
88.300000 -1.518354
88.350000 -1.518354
88.400000 -1.538909
88.450000 -1.593724
88.500000 -1.634834
88.550000 -1.669093
88.600000 -1.734185
88.650000 -1.809555
88.700000 -1.888350
88.750000 -1.987702
88.800000 -2.066497
88.850000 -2.069922
88.900000 -2.028811
88.950000 -1.977423
89.000000 -1.860943
89.050000 -1.679371
89.100000 -1.501225
89.150000 -1.309375
89.200000 -1.062710
89.250000 -0.850305
89.300000 -0.699567
89.350000 -0.569383
89.400000 -0.476884
89.450000 -0.473458
89.500000 -0.514569
89.550000 -0.589938
89.600000 -0.733826
89.650000 -0.918823
89.700000 -1.086692
89.750000 -1.237432
89.800000 -1.360763
89.850000 -1.436133
89.900000 -1.487521
89.950000 -1.494373
90.000000 -1.412152
90.050000 -1.285394
90.100000 -1.189469
90.150000 -1.093544
90.200000 -0.990768
90.250000 -0.925676
90.300000 -0.911972
90.350000 -0.935953
90.400000 -0.994193
90.450000 -1.079840
90.500000 -1.158636
90.550000 -1.220302
90.600000 -1.254561
90.650000 -1.257986
90.700000 -1.230580
90.750000 -1.179191
90.800000 -1.086692
90.850000 -0.953083
90.900000 -0.805769
90.950000 -0.672159
91.000000 -0.531698
91.050000 -0.401514
91.100000 -0.350126
91.150000 -0.356977
91.200000 -0.350126
91.250000 -0.343274
91.300000 -0.398089
91.350000 -0.483735
91.400000 -0.545402
91.450000 -0.610493
91.500000 -0.682437
91.550000 -0.733825
91.600000 -0.788639
91.650000 -0.846880
91.700000 -0.877713
91.750000 -0.898268
91.800000 -0.959934
91.850000 -1.049007
91.900000 -1.144932
91.950000 -1.247709
92.000000 -1.364189
92.050000 -1.490947
92.100000 -1.607427
92.150000 -1.703352
92.200000 -1.775296
92.250000 -1.819833
92.300000 -1.819833
92.350000 -1.778722
92.400000 -1.727333
92.450000 -1.682797
92.500000 -1.621131
92.550000 -1.518355
92.600000 -1.415577
92.650000 -1.340208
92.700000 -1.292245
92.750000 -1.227153
92.800000 -1.120951
92.850000 -1.021600
92.900000 -0.935953
92.950000 -0.840028
93.000000 -0.726974
93.050000 -0.634475
93.100000 -0.562531
93.150000 -0.494013
93.200000 -0.452903
93.250000 -0.470032
93.300000 -0.535124
93.350000 -0.624197
93.400000 -0.726974
93.450000 -0.853732
93.500000 -0.990768
93.550000 -1.107247
93.600000 -1.189469
93.650000 -1.230579
93.700000 -1.240857
93.750000 -1.203172
93.800000 -1.141507
93.850000 -1.072989
93.900000 -1.021600
93.950000 -0.987342
94.000000 -0.949657
94.050000 -0.932527
94.100000 -0.963361
94.150000 -1.031878
94.200000 -1.124376
94.250000 -1.278542
94.300000 -1.484095
94.350000 -1.645112
94.400000 -1.758167
94.450000 -1.867796
94.500000 -1.929461
94.550000 -1.905480
94.600000 -1.843814
94.650000 -1.775296
94.700000 -1.645112
94.750000 -1.449836
94.800000 -1.264839
94.850000 -1.134655
94.900000 -1.035303
94.950000 -0.959934
95.000000 -0.942804
95.050000 -1.004471
95.100000 -1.117525
95.150000 -1.244283
95.200000 -1.371041
95.250000 -1.494373
95.300000 -1.600575
95.350000 -1.651964
95.400000 -1.631409
95.450000 -1.559465
95.500000 -1.453263
95.550000 -1.316226
95.600000 -1.165488
95.650000 -1.007896
95.700000 -0.857158
95.750000 -0.754381
95.800000 -0.723548
95.850000 -0.733826
95.900000 -0.761233
95.950000 -0.829750
96.000000 -0.925676
96.050000 -1.001045
96.100000 -1.079840
96.150000 -1.182617
96.200000 -1.281968
96.250000 -1.360763
96.300000 -1.415577
96.350000 -1.419004
96.400000 -1.367615
96.450000 -1.329930
96.500000 -1.305949
96.550000 -1.230579
96.600000 -1.127803
96.650000 -1.042156
96.700000 -0.946230
96.750000 -0.819473
96.800000 -0.726974
96.850000 -0.696141
96.900000 -0.668734
96.950000 -0.617345
97.000000 -0.600215
97.050000 -0.655030
97.100000 -0.737251
97.150000 -0.802343
97.200000 -0.874287
97.250000 -0.997619
97.300000 -1.151784
97.350000 -1.281968
97.400000 -1.377892
97.450000 -1.484095
97.500000 -1.593724
97.550000 -1.645112
97.600000 -1.645112
97.650000 -1.634834
97.700000 -1.604001
97.750000 -1.532058
97.800000 -1.439558
97.850000 -1.343634
97.900000 -1.223728
97.950000 -1.110674
98.000000 -1.045581
98.050000 -1.028452
98.100000 -1.059285
98.150000 -1.134655
98.200000 -1.230580
98.250000 -1.329930
98.300000 -1.439559
98.350000 -1.542335
98.400000 -1.593724
98.450000 -1.624557
98.500000 -1.665667
98.550000 -1.665668
98.600000 -1.610854
98.650000 -1.552614
98.700000 -1.494373
98.750000 -1.425855
98.800000 -1.364189
98.850000 -1.347059
98.900000 -1.364190
98.950000 -1.391596
99.000000 -1.432707
99.050000 -1.514929
99.100000 -1.600575
99.150000 -1.634835
99.200000 -1.641686
99.250000 -1.655390
99.300000 -1.621131
99.350000 -1.508077
99.400000 -1.377892
99.450000 -1.261412
99.500000 -1.120951
99.550000 -0.959934
99.600000 -0.829751
99.650000 -0.750954
99.700000 -0.699567
99.750000 -0.675586
99.800000 -0.713270
99.850000 -0.809195
99.900000 -0.932527
99.950000 -1.042156
100.000000 -1.131229
100.050000 -1.216876
100.100000 -1.261412
100.150000 -1.227154
100.200000 -1.141507
100.250000 -1.038730
100.300000 -0.918823
100.350000 -0.795492
100.400000 -0.689289
100.450000 -0.596790
100.500000 -0.545402
100.550000 -0.555679
100.600000 -0.600216
100.650000 -0.658456
100.700000 -0.761233
100.750000 -0.905120
100.800000 -1.052433
100.850000 -1.186043
100.900000 -1.305949
100.950000 -1.367615
101.000000 -1.347059
101.050000 -1.278542
101.100000 -1.175766
101.150000 -1.014748
101.200000 -0.805770
101.250000 -0.610493
101.300000 -0.456328
101.350000 -0.332997
101.400000 -0.247349
101.450000 -0.226794
101.500000 -0.261053
101.550000 -0.322719
101.600000 -0.449477
101.650000 -0.651604
101.700000 -0.846879
101.750000 -0.994194
101.800000 -1.141506
101.850000 -1.268264
101.900000 -1.309375
101.950000 -1.278542
102.000000 -1.227153
102.050000 -1.134655
102.100000 -1.025026
102.150000 -0.932527
102.200000 -0.857157
102.250000 -0.812621
102.300000 -0.836602
102.350000 -0.887991
102.400000 -0.922249
102.450000 -0.973637
102.500000 -1.038730
102.550000 -1.062711
102.600000 -1.049008
102.650000 -1.035304
102.700000 -0.987341
102.750000 -0.870861
102.800000 -0.730400
102.850000 -0.613919
102.900000 -0.521420
102.950000 -0.466606
103.000000 -0.459754
103.050000 -0.490588
103.100000 -0.555679
103.150000 -0.651604
103.200000 -0.747529
103.250000 -0.843454
103.300000 -0.959934
103.350000 -1.059285
103.400000 -1.103822
103.450000 -1.138080
103.500000 -1.186043
103.550000 -1.213450
103.600000 -1.199746
103.650000 -1.189469
103.700000 -1.230580
103.750000 -1.278541
103.800000 -1.292245
103.850000 -1.319652
103.900000 -1.374467
103.950000 -1.419003
104.000000 -1.439559
104.050000 -1.449837
104.100000 -1.436133
104.150000 -1.374467
104.200000 -1.285393
104.250000 -1.203172
104.300000 -1.141506
104.350000 -1.066137
104.400000 -0.997618
104.450000 -0.963360
104.500000 -0.963360
104.550000 -0.963360
104.600000 -0.953082
104.650000 -0.932527
104.700000 -0.898268
104.750000 -0.840028
104.800000 -0.750955
104.850000 -0.665308
104.900000 -0.572808
104.950000 -0.452902
105.000000 -0.326144
105.050000 -0.254201
105.100000 -0.216516
105.150000 -0.209665
105.200000 -0.271330
105.250000 -0.391237
105.300000 -0.514569
105.350000 -0.648178
105.400000 -0.798917
105.450000 -0.925675
105.500000 -1.011323
105.550000 -1.090118
105.600000 -1.141506
105.650000 -1.144932
105.700000 -1.141507
105.750000 -1.134654
105.800000 -1.069563
105.850000 -0.990768
105.900000 -0.956508
105.950000 -0.932527
106.000000 -0.881139
106.050000 -0.843454
106.100000 -0.846880
106.150000 -0.846880
106.200000 -0.846880
106.250000 -0.891416
106.300000 -0.963360
106.350000 -1.011322
106.400000 -1.059285
106.450000 -1.134655
106.500000 -1.213451
106.550000 -1.244283
106.600000 -1.264838
106.650000 -1.333357
106.700000 -1.415577
106.750000 -1.429281
106.800000 -1.419003
106.850000 -1.446410
106.900000 -1.490947
106.950000 -1.490947
107.000000 -1.466966
107.050000 -1.446411
107.100000 -1.439559
107.150000 -1.412151
107.200000 -1.357337
107.250000 -1.302523
107.300000 -1.251135
107.350000 -1.189468
107.400000 -1.127803
107.450000 -1.086692
107.500000 -1.062711
107.550000 -1.059285
107.600000 -1.083266
107.650000 -1.148358
107.700000 -1.234005
107.750000 -1.333356
107.800000 -1.439559
107.850000 -1.525206
107.900000 -1.583446
107.950000 -1.641687
108.000000 -1.710204
108.050000 -1.747889
108.100000 -1.751315
108.150000 -1.737611
108.200000 -1.723907
108.250000 -1.703352
108.300000 -1.682797
108.350000 -1.641687
108.400000 -1.559465
108.450000 -1.494373
108.500000 -1.456688
108.550000 -1.367615
108.600000 -1.220302
108.650000 -1.100396
108.700000 -1.018174
108.750000 -0.908546
108.800000 -0.798917
108.850000 -0.757807
108.900000 -0.757807
108.950000 -0.771510
109.000000 -0.816047
109.050000 -0.894843
109.100000 -0.949656
109.150000 -0.987341
109.200000 -1.028452
109.250000 -1.076414
109.300000 -1.103821
109.350000 -1.110673
109.400000 -1.114099
109.450000 -1.120951
109.500000 -1.144932
109.550000 -1.179191
109.600000 -1.230580
109.650000 -1.295672
109.700000 -1.360763
109.750000 -1.384745
109.800000 -1.381319
109.850000 -1.374467
109.900000 -1.347060
109.950000 -1.261413
110.000000 -1.179191
110.050000 -1.144933
110.100000 -1.103821
110.150000 -1.055859
110.200000 -1.052433
110.250000 -1.090118
110.300000 -1.148358
110.350000 -1.244283
110.400000 -1.347060
110.450000 -1.408725
110.500000 -1.442985
110.550000 -1.463540
110.600000 -1.449837
110.650000 -1.395022
110.700000 -1.312801
110.750000 -1.223728
110.800000 -1.131229
110.850000 -1.062711
110.900000 -1.001045
110.950000 -0.963360
111.000000 -0.973637
111.050000 -1.038730
111.100000 -1.114100
111.150000 -1.175766
111.200000 -1.240857
111.250000 -1.302523
111.300000 -1.329930
111.350000 -1.305949
111.400000 -1.251134
111.450000 -1.199746
111.500000 -1.144933
111.550000 -1.066137
111.600000 -0.990768
111.650000 -0.946231
111.700000 -0.911972
111.750000 -0.881139
111.800000 -0.877712
111.850000 -0.922249
111.900000 -0.997619
111.950000 -1.066136
112.000000 -1.100396
112.050000 -1.110674
112.100000 -1.144932
112.150000 -1.182617
112.200000 -1.196321
112.250000 -1.223728
112.300000 -1.264838
112.350000 -1.281968
112.400000 -1.281968
112.450000 -1.302523
112.500000 -1.333356
112.550000 -1.319652
112.600000 -1.292245
112.650000 -1.292246
112.700000 -1.319652
112.750000 -1.353912
112.800000 -1.377893
112.850000 -1.398448
112.900000 -1.425855
112.950000 -1.456688
113.000000 -1.473818
113.050000 -1.480669
113.100000 -1.473818
113.150000 -1.439559
113.200000 -1.398448
113.250000 -1.357337
113.300000 -1.295671
113.350000 -1.220302
113.400000 -1.162062
113.450000 -1.134654
113.500000 -1.114099
113.550000 -1.114099
113.600000 -1.162061
113.650000 -1.237431
113.700000 -1.305949
113.750000 -1.381319
113.800000 -1.460114
113.850000 -1.532058
113.900000 -1.590298
113.950000 -1.624557
114.000000 -1.617705
114.050000 -1.586872
114.100000 -1.573168
114.150000 -1.525206
114.200000 -1.412152
114.250000 -1.299097
114.300000 -1.237431
114.350000 -1.162061
114.400000 -1.062711
114.450000 -1.007897
114.500000 -0.987341
114.550000 -0.935953
114.600000 -0.877713
114.650000 -0.874287
114.700000 -0.905120
114.750000 -0.929101
114.800000 -0.959934
114.850000 -1.014748
114.900000 -1.055860
114.950000 -1.093544
115.000000 -1.138080
115.050000 -1.162062
115.100000 -1.162062
115.150000 -1.155210
115.200000 -1.155210
115.250000 -1.151784
115.300000 -1.141506
115.350000 -1.103821
115.400000 -1.035303
115.450000 -0.977064
115.500000 -0.942805
115.550000 -0.898268
115.600000 -0.846880
115.650000 -0.822899
115.700000 -0.840028
115.750000 -0.881139
115.800000 -0.963361
115.850000 -1.079840
115.900000 -1.206598
115.950000 -1.305949
116.000000 -1.398449
116.050000 -1.490947
116.100000 -1.556039
116.150000 -1.562891
116.200000 -1.535484
116.250000 -1.477243
116.300000 -1.398448
116.350000 -1.295671
116.400000 -1.179191
116.450000 -1.066136
116.500000 -0.959934
116.550000 -0.867435
116.600000 -0.798918
116.650000 -0.750955
116.700000 -0.744104
116.750000 -0.757807
116.800000 -0.771510
116.850000 -0.781788
116.900000 -0.809195
116.950000 -0.833177
117.000000 -0.805769
117.050000 -0.747529
117.100000 -0.696141
117.150000 -0.648178
117.200000 -0.586512
117.250000 -0.541976
117.300000 -0.514569
117.350000 -0.497439
117.400000 -0.507717
117.450000 -0.562531
117.500000 -0.631049
117.550000 -0.720122
117.600000 -0.829750
117.650000 -0.929101
117.700000 -1.001045
117.750000 -1.062711
117.800000 -1.110674
117.850000 -1.148358
117.900000 -1.192895
117.950000 -1.220302
118.000000 -1.216876
118.050000 -1.223728
118.100000 -1.268264
118.150000 -1.319653
118.200000 -1.360763
118.250000 -1.439559
118.300000 -1.532057
118.350000 -1.583446
118.400000 -1.614279
118.450000 -1.645112
118.500000 -1.658816
118.550000 -1.634834
118.600000 -1.580020
118.650000 -1.525206
118.700000 -1.480669
118.750000 -1.446410
118.800000 -1.419003
118.850000 -1.415578
118.900000 -1.439559
118.950000 -1.453262
119.000000 -1.460114
119.050000 -1.480669
119.100000 -1.504651
119.150000 -1.497799
119.200000 -1.470392
119.250000 -1.446410
119.300000 -1.391596
119.350000 -1.302523
119.400000 -1.216876
119.450000 -1.165488
119.500000 -1.131228
119.550000 -1.114099
119.600000 -1.144933
119.650000 -1.220302
119.700000 -1.329930
119.750000 -1.456688
119.800000 -1.583446
119.850000 -1.689649
119.900000 -1.768444
119.950000 -1.816407
120.000000 -1.819832
120.050000 -1.771870
120.100000 -1.699927
120.150000 -1.627983
120.200000 -1.528632
120.250000 -1.391597
120.300000 -1.275116
120.350000 -1.189469
120.400000 -1.103822
120.450000 -1.042155
120.500000 -1.018175
120.550000 -1.021600
120.600000 -1.035304
120.650000 -1.072989
120.700000 -1.131229
120.750000 -1.192894
120.800000 -1.257987
120.850000 -1.333356
120.900000 -1.405300
120.950000 -1.473818
121.000000 -1.532058
121.050000 -1.562891
121.100000 -1.583446
121.150000 -1.590298
121.200000 -1.569743
121.250000 -1.535483
121.300000 -1.514929
121.350000 -1.470392
121.400000 -1.374467
121.450000 -1.281968
121.500000 -1.254560
121.550000 -1.237431
121.600000 -1.223728
121.650000 -1.261413
121.700000 -1.319653
121.750000 -1.357337
121.800000 -1.408726
121.850000 -1.480670
121.900000 -1.535484
121.950000 -1.556039
122.000000 -1.556040
122.050000 -1.552614
122.100000 -1.528632
122.150000 -1.497799
122.200000 -1.490947
122.250000 -1.494373
122.300000 -1.497799
122.350000 -1.490947
122.400000 -1.514929
122.450000 -1.562891
122.500000 -1.610854
122.550000 -1.634835
122.600000 -1.645112
122.650000 -1.638261
122.700000 -1.586872
122.750000 -1.473818
122.800000 -1.333356
122.850000 -1.199746
122.900000 -1.096970
122.950000 -1.025026
123.000000 -0.959934
123.050000 -0.915397
123.100000 -0.925675
123.150000 -0.990767
123.200000 -1.066137
123.250000 -1.131229
123.300000 -1.189469
123.350000 -1.237432
123.400000 -1.268264
123.450000 -1.285394
123.500000 -1.275116
123.550000 -1.234005
123.600000 -1.165488
123.650000 -1.103822
123.700000 -1.069563
123.750000 -1.045582
123.800000 -1.038729
123.850000 -1.049007
123.900000 -1.072988
123.950000 -1.076414
124.000000 -1.072989
124.050000 -1.079841
124.100000 -1.107248
124.150000 -1.124377
124.200000 -1.117525
124.250000 -1.114099
124.300000 -1.124377
124.350000 -1.165488
124.400000 -1.230579
124.450000 -1.305949
124.500000 -1.381318
124.550000 -1.439559
124.600000 -1.456688
124.650000 -1.439559
124.700000 -1.419004
124.750000 -1.374467
124.800000 -1.278542
124.850000 -1.148358
124.900000 -1.038730
124.950000 -0.956508
125.000000 -0.884565
125.050000 -0.833177
125.100000 -0.819473
125.150000 -0.843454
125.200000 -0.901694
125.250000 -1.001045
125.300000 -1.131228
125.350000 -1.254561
125.400000 -1.347060
125.450000 -1.415577
125.500000 -1.470391
125.550000 -1.460114
125.600000 -1.374467
125.650000 -1.278542
125.700000 -1.216876
125.750000 -1.148358
125.800000 -1.062711
125.850000 -0.983916
125.900000 -0.966786
125.950000 -0.983916
126.000000 -1.001045
126.050000 -1.025026
126.100000 -1.090118
126.150000 -1.186043
126.200000 -1.257986
126.250000 -1.305949
126.300000 -1.350486
126.350000 -1.360764
126.400000 -1.333356
126.450000 -1.295672
126.500000 -1.251134
126.550000 -1.182617
126.600000 -1.114099
126.650000 -1.083266
126.700000 -1.076414
126.750000 -1.083267
126.800000 -1.138080
126.850000 -1.227153
126.900000 -1.316227
126.950000 -1.405300
127.000000 -1.494373
127.050000 -1.573168
127.100000 -1.631409
127.150000 -1.679371
127.200000 -1.696501
127.250000 -1.693074
127.300000 -1.672519
127.350000 -1.600575
127.400000 -1.497799
127.450000 -1.395022
127.500000 -1.281967
127.550000 -1.131229
127.600000 -0.970212
127.650000 -0.860583
127.700000 -0.774936
127.750000 -0.685863
127.800000 -0.613919
127.850000 -0.603641
127.900000 -0.648178
127.950000 -0.713270
128.000000 -0.785214
128.050000 -0.867435
128.100000 -0.980490
128.150000 -1.100395
128.200000 -1.175765
128.250000 -1.210024
128.300000 -1.230580
128.350000 -1.227153
128.400000 -1.172340
128.450000 -1.114099
128.500000 -1.079840
128.550000 -1.042155
128.600000 -0.997618
128.650000 -0.987341
128.700000 -1.007897
128.750000 -1.049007
128.800000 -1.131229
128.850000 -1.206598
128.900000 -1.247709
128.950000 -1.295671
129.000000 -1.353912
129.050000 -1.381319
129.100000 -1.371041
129.150000 -1.374467
129.200000 -1.371041
129.250000 -1.343634
129.300000 -1.305949
129.350000 -1.261412
129.400000 -1.206598
129.450000 -1.155210
129.500000 -1.114099
129.550000 -1.059285
129.600000 -1.011323
129.650000 -0.994193
129.700000 -0.990767
129.750000 -0.990767
129.800000 -1.014748
129.850000 -1.076415
129.900000 -1.117525
129.950000 -1.131229
130.000000 -1.131229
130.050000 -1.107248
130.100000 -1.055859
130.150000 -1.007897
130.200000 -0.956508
130.250000 -0.891417
130.300000 -0.850306
130.350000 -0.836602
130.400000 -0.846880
130.450000 -0.891416
130.500000 -0.973638
130.550000 -1.045582
130.600000 -1.083267
130.650000 -1.141507
130.700000 -1.213450
130.750000 -1.227154
130.800000 -1.186043
130.850000 -1.148358
130.900000 -1.110673
130.950000 -1.052433
131.000000 -0.997619
131.050000 -0.966786
131.100000 -0.949656
131.150000 -0.959934
131.200000 -1.014749
131.250000 -1.103822
131.300000 -1.216876
131.350000 -1.333356
131.400000 -1.408725
131.450000 -1.446410
131.500000 -1.466966
131.550000 -1.436133
131.600000 -1.364190
131.650000 -1.275116
131.700000 -1.162061
131.750000 -1.007897
131.800000 -0.850306
131.850000 -0.750955
131.900000 -0.668734
131.950000 -0.576234
132.000000 -0.514568
132.050000 -0.528272
132.100000 -0.600215
132.150000 -0.692715
132.200000 -0.805769
132.250000 -0.929101
132.300000 -1.055859
132.350000 -1.168914
132.400000 -1.251135
132.450000 -1.299097
132.500000 -1.333357
132.550000 -1.347060
132.600000 -1.333357
132.650000 -1.309375
132.700000 -1.275116
132.750000 -1.220302
132.800000 -1.158636
132.850000 -1.107248
132.900000 -1.055860
132.950000 -1.004471
133.000000 -0.977064
133.050000 -0.983915
133.100000 -1.004471
133.150000 -1.025026
133.200000 -1.049008
133.250000 -1.107247
133.300000 -1.168913
133.350000 -1.196320
133.400000 -1.199746
133.450000 -1.223727
133.500000 -1.234005
133.550000 -1.210024
133.600000 -1.172340
133.650000 -1.131229
133.700000 -1.069562
133.750000 -1.007897
133.800000 -0.966786
133.850000 -0.946231
133.900000 -0.935953
133.950000 -0.949656
134.000000 -0.983915
134.050000 -1.035304
134.100000 -1.066137
134.150000 -1.069563
134.200000 -1.066137
134.250000 -1.086693
134.300000 -1.096970
134.350000 -1.059285
134.400000 -1.014748
134.450000 -0.990767
134.500000 -0.953082
134.550000 -0.894843
134.600000 -0.870861
134.650000 -0.898268
134.700000 -0.935953
134.750000 -0.966786
134.800000 -1.004471
134.850000 -1.079841
134.900000 -1.175765
134.950000 -1.247709
135.000000 -1.281968
135.050000 -1.333356
135.100000 -1.395022
135.150000 -1.412152
135.200000 -1.388171
135.250000 -1.395022
135.300000 -1.412152
135.350000 -1.364189
135.400000 -1.264838
135.450000 -1.189468
135.500000 -1.117525
135.550000 -1.025026
135.600000 -0.956508
135.650000 -0.925675
135.700000 -0.922250
135.750000 -0.956509
135.800000 -1.014748
135.850000 -1.055859
135.900000 -1.103821
135.950000 -1.189469
136.000000 -1.244283
136.050000 -1.257986
136.100000 -1.278542
136.150000 -1.271690
136.200000 -1.189469
136.250000 -1.093544
136.300000 -1.031878
136.350000 -0.953082
136.400000 -0.867435
136.450000 -0.840028
136.500000 -0.867435
136.550000 -0.911971
136.600000 -0.973638
136.650000 -1.049008
136.700000 -1.127803
136.750000 -1.206598
136.800000 -1.257987
136.850000 -1.278542
136.900000 -1.278542
136.950000 -1.247709
137.000000 -1.158636
137.050000 -1.042156
137.100000 -0.942805
137.150000 -0.840028
137.200000 -0.744103
137.250000 -0.682437
137.300000 -0.679011
137.350000 -0.709844
137.400000 -0.750955
137.450000 -0.805769
137.500000 -0.870861
137.550000 -0.922249
137.600000 -0.953082
137.650000 -0.983915
137.700000 -1.014749
137.750000 -1.014748
137.800000 -0.977063
137.850000 -0.949656
137.900000 -0.953082
137.950000 -0.959934
138.000000 -0.963360
138.050000 -0.990767
138.100000 -1.021600
138.150000 -1.045582
138.200000 -1.083266
138.250000 -1.144932
138.300000 -1.199746
138.350000 -1.234005
138.400000 -1.261413
138.450000 -1.278542
138.500000 -1.285393
138.550000 -1.285394
138.600000 -1.278542
138.650000 -1.271690
138.700000 -1.251135
138.750000 -1.206598
138.800000 -1.158636
138.850000 -1.144933
138.900000 -1.151784
138.950000 -1.131228
139.000000 -1.096969
139.050000 -1.110674
139.100000 -1.158636
139.150000 -1.192894
139.200000 -1.213450
139.250000 -1.254561
139.300000 -1.326504
139.350000 -1.371041
139.400000 -1.391597
139.450000 -1.408725
139.500000 -1.415578
139.550000 -1.391597
139.600000 -1.357338
139.650000 -1.347059
139.700000 -1.326504
139.750000 -1.305949
139.800000 -1.316227
139.850000 -1.360763
139.900000 -1.395023
139.950000 -1.436133
140.000000 -1.494373
140.050000 -1.538910
140.100000 -1.549187
140.150000 -1.532058
140.200000 -1.490947
140.250000 -1.429281
140.300000 -1.350485
140.350000 -1.257986
140.400000 -1.144933
140.450000 -1.038729
140.500000 -0.956508
140.550000 -0.894842
140.600000 -0.843454
140.650000 -0.843454
140.700000 -0.898268
140.750000 -0.983916
140.800000 -1.076414
140.850000 -1.186043
140.900000 -1.295671
140.950000 -1.371041
141.000000 -1.391597
141.050000 -1.398448
141.100000 -1.391597
141.150000 -1.312801
141.200000 -1.168913
141.250000 -1.045581
141.300000 -0.973638
141.350000 -0.908545
141.400000 -0.867435
141.450000 -0.884564
141.500000 -0.932527
141.550000 -0.994193
141.600000 -1.072988
141.650000 -1.158636
141.700000 -1.213450
141.750000 -1.234006
141.800000 -1.237431
141.850000 -1.199746
141.900000 -1.114099
141.950000 -0.983915
142.000000 -0.836602
142.050000 -0.689289
142.100000 -0.569382
142.150000 -0.473458
142.200000 -0.411792
142.250000 -0.394662
142.300000 -0.408366
142.350000 -0.428921
142.400000 -0.466607
142.450000 -0.531698
142.500000 -0.610493
142.550000 -0.685863
142.600000 -0.754381
142.650000 -0.816047
142.700000 -0.891416
142.750000 -0.970212
142.800000 -1.038730
142.850000 -1.114100
142.900000 -1.199747
142.950000 -1.264838
143.000000 -1.323078
143.050000 -1.395022
143.100000 -1.456688
143.150000 -1.473818
143.200000 -1.487522
143.250000 -1.490947
143.300000 -1.446411
143.350000 -1.377893
143.400000 -1.299097
143.450000 -1.192895
143.500000 -1.124377
143.550000 -1.096970
143.600000 -1.049008
143.650000 -0.990767
143.700000 -0.983915
143.750000 -0.997619
143.800000 -1.014748
143.850000 -1.062711
143.900000 -1.131229
143.950000 -1.165487
144.000000 -1.199746
144.050000 -1.261412
144.100000 -1.288819
144.150000 -1.275116
144.200000 -1.268264
144.250000 -1.268264
144.300000 -1.237431
144.350000 -1.206598
144.400000 -1.172339
144.450000 -1.134654
144.500000 -1.114100
144.550000 -1.103822
144.600000 -1.049007
144.650000 -0.983915
144.700000 -0.949657
144.750000 -0.925675
144.800000 -0.870861
144.850000 -0.826324
144.900000 -0.812621
144.950000 -0.788640
145.000000 -0.744103
145.050000 -0.720122
145.100000 -0.702993
145.150000 -0.689289
145.200000 -0.685863
145.250000 -0.702993
145.300000 -0.723548
145.350000 -0.713270
145.400000 -0.692715
145.450000 -0.699567
145.500000 -0.716696
145.550000 -0.716696
145.600000 -0.699566
145.650000 -0.689289
145.700000 -0.689289
145.750000 -0.702992
145.800000 -0.723547
145.850000 -0.750954
145.900000 -0.778362
145.950000 -0.822898
146.000000 -0.877713
146.050000 -0.929101
146.100000 -0.973638
146.150000 -1.025026
146.200000 -1.096970
146.250000 -1.158636
146.300000 -1.203172
146.350000 -1.240857
146.400000 -1.247709
146.450000 -1.234006
146.500000 -1.220302
146.550000 -1.189469
146.600000 -1.131229
146.650000 -1.066137
146.700000 -1.007897
146.750000 -0.942804
146.800000 -0.874287
146.850000 -0.843454
146.900000 -0.850306
146.950000 -0.884565
147.000000 -0.925675
147.050000 -0.973638
147.100000 -1.028452
147.150000 -1.066137
147.200000 -1.062711
147.250000 -1.042156
147.300000 -1.035304
147.350000 -1.025026
147.400000 -0.983915
147.450000 -0.949657
147.500000 -0.959934
147.550000 -0.994193
147.600000 -1.021600
147.650000 -1.055859
147.700000 -1.134654
147.750000 -1.223727
147.800000 -1.278542
147.850000 -1.329930
147.900000 -1.388171
147.950000 -1.415577
148.000000 -1.377893
148.050000 -1.319653
148.100000 -1.275116
148.150000 -1.210024
148.200000 -1.114099
148.250000 -1.028452
148.300000 -1.004471
148.350000 -1.021600
148.400000 -1.042156
148.450000 -1.086692
148.500000 -1.144932
148.550000 -1.199746
148.600000 -1.247709
148.650000 -1.309375
148.700000 -1.357338
148.750000 -1.364189
148.800000 -1.350485
148.850000 -1.357338
148.900000 -1.381318
148.950000 -1.367615
149.000000 -1.319653
149.050000 -1.275116
149.100000 -1.234005
149.150000 -1.162062
149.200000 -1.066137
149.250000 -1.001045
149.300000 -0.935953
149.350000 -0.846880
149.400000 -0.764659
149.450000 -0.726974
149.500000 -0.692715
149.550000 -0.679011
149.600000 -0.716696
149.650000 -0.792066
149.700000 -0.881139
149.750000 -0.987342
149.800000 -1.083267
149.850000 -1.172340
149.900000 -1.285394
149.950000 -1.391596
150.000000 -1.442984
150.050000 -1.477244
150.100000 -1.504651
150.150000 -1.477243
150.200000 -1.422429
150.250000 -1.405300
150.300000 -1.405300
150.350000 -1.377893
150.400000 -1.381318
150.450000 -1.422430
150.500000 -1.456688
150.550000 -1.453262
150.600000 -1.453262
150.650000 -1.453263
150.700000 -1.439559
150.750000 -1.391596
150.800000 -1.305949
150.850000 -1.199746
150.900000 -1.096970
150.950000 -0.997619
151.000000 -0.905120
151.050000 -0.860583
151.100000 -0.877713
151.150000 -0.925676
151.200000 -1.001045
151.250000 -1.096970
151.300000 -1.210024
151.350000 -1.326505
151.400000 -1.453263
151.450000 -1.552614
151.500000 -1.597150
151.550000 -1.607427
151.600000 -1.614279
151.650000 -1.597150
151.700000 -1.549187
151.750000 -1.490947
151.800000 -1.425855
151.850000 -1.347060
151.900000 -1.295671
151.950000 -1.251135
152.000000 -1.203172
152.050000 -1.189468
152.100000 -1.227153
152.150000 -1.230580
152.200000 -1.189469
152.250000 -1.182617
152.300000 -1.220302
152.350000 -1.237431
152.400000 -1.237431
152.450000 -1.264838
152.500000 -1.302523
152.550000 -1.333356
152.600000 -1.350486
152.650000 -1.374467
152.700000 -1.401874
152.750000 -1.422430
152.800000 -1.401874
152.850000 -1.367615
152.900000 -1.347060
152.950000 -1.305949
153.000000 -1.234005
153.050000 -1.189469
153.100000 -1.155210
153.150000 -1.096970
153.200000 -1.028452
153.250000 -0.990767
153.300000 -0.977064
153.350000 -0.970212
153.400000 -0.970212
153.450000 -0.987341
153.500000 -1.028452
153.550000 -1.086692
153.600000 -1.138080
153.650000 -1.192895
153.700000 -1.247709
153.750000 -1.278542
153.800000 -1.264838
153.850000 -1.275116
153.900000 -1.329930
153.950000 -1.350486
154.000000 -1.326505
154.050000 -1.343633
154.100000 -1.415577
154.150000 -1.473818
154.200000 -1.518355
154.250000 -1.593724
154.300000 -1.675945
154.350000 -1.706778
154.400000 -1.703352
154.450000 -1.693074
154.500000 -1.665667
154.550000 -1.607428
154.600000 -1.511503
154.650000 -1.405300
154.700000 -1.316226
154.750000 -1.237431
154.800000 -1.141506
154.850000 -1.083266
154.900000 -1.090119
154.950000 -1.093544
155.000000 -1.093544
155.050000 -1.124377
155.100000 -1.165488
155.150000 -1.148358
155.200000 -1.131228
155.250000 -1.117525
155.300000 -1.069562
155.350000 -1.004471
155.400000 -0.970212
155.450000 -0.935953
155.500000 -0.911972
155.550000 -0.932527
155.600000 -0.953082
155.650000 -0.970212
155.700000 -1.001045
155.750000 -1.007897
155.800000 -0.987341
155.850000 -1.007897
155.900000 -1.038730
155.950000 -1.011322
156.000000 -0.963360
156.050000 -0.970212
156.100000 -0.994193
156.150000 -0.977063
156.200000 -0.953082
156.250000 -0.977063
156.300000 -1.025026
156.350000 -1.076414
156.400000 -1.138081
156.450000 -1.216876
156.500000 -1.299098
156.550000 -1.364189
156.600000 -1.422429
156.650000 -1.473818
156.700000 -1.514928
156.750000 -1.545762
156.800000 -1.549187
156.850000 -1.542336
156.900000 -1.538910
156.950000 -1.511502
157.000000 -1.432707
157.050000 -1.347060
157.100000 -1.295672
157.150000 -1.254561
157.200000 -1.186042
157.250000 -1.114099
157.300000 -1.083267
157.350000 -1.066136
157.400000 -1.042156
157.450000 -1.049007
157.500000 -1.100395
157.550000 -1.158636
157.600000 -1.196321
157.650000 -1.257987
157.700000 -1.357338
157.750000 -1.429281
157.800000 -1.449836
157.850000 -1.442985
157.900000 -1.419004
157.950000 -1.381319
158.000000 -1.336782
158.050000 -1.275116
158.100000 -1.199747
158.150000 -1.138081
158.200000 -1.079840
158.250000 -1.025026
158.300000 -0.997619
158.350000 -0.983916
158.400000 -0.959934
158.450000 -0.946231
158.500000 -0.973638
158.550000 -0.997619
158.600000 -1.014749
158.650000 -1.079841
158.700000 -1.165488
158.750000 -1.237431
158.800000 -1.343634
158.850000 -1.470392
158.900000 -1.569742
158.950000 -1.669094
159.000000 -1.785574
159.050000 -1.871221
159.100000 -1.891776
159.150000 -1.871221
159.200000 -1.795851
159.250000 -1.665668
159.300000 -1.521780
159.350000 -1.367615
159.400000 -1.189469
159.450000 -1.038729
159.500000 -0.942805
159.550000 -0.874287
159.600000 -0.822898
159.650000 -0.840028
159.700000 -0.922249
159.750000 -1.014748
159.800000 -1.096970
159.850000 -1.199746
159.900000 -1.309375
159.950000 -1.384745
160.000000 -1.408725
160.050000 -1.412152
160.100000 -1.429281
160.150000 -1.456688
160.200000 -1.460115
160.250000 -1.442985
160.300000 -1.422430
160.350000 -1.401874
160.400000 -1.367615
160.450000 -1.343633
160.500000 -1.323079
160.550000 -1.278542
160.600000 -1.227153
160.650000 -1.199746
160.700000 -1.189469
160.750000 -1.199746
160.800000 -1.234005
160.850000 -1.275116
160.900000 -1.292246
160.950000 -1.302523
161.000000 -1.329930
161.050000 -1.347059
161.100000 -1.329930
161.150000 -1.292245
161.200000 -1.237432
161.250000 -1.189469
161.300000 -1.151784
161.350000 -1.110674
161.400000 -1.059285
161.450000 -1.035304
161.500000 -1.049007
161.550000 -1.066137
161.600000 -1.079841
161.650000 -1.134654
161.700000 -1.223727
161.750000 -1.305949
161.800000 -1.340208
161.850000 -1.353912
161.900000 -1.374467
161.950000 -1.367615
162.000000 -1.302524
162.050000 -1.192895
162.100000 -1.086692
162.150000 -0.963360
162.200000 -0.816047
162.250000 -0.679011
162.300000 -0.562531
162.350000 -0.415217
162.400000 -0.254201
162.450000 -0.168553
162.500000 -0.165128
162.550000 -0.154850
162.600000 -0.165127
162.650000 -0.257626
162.700000 -0.394662
162.750000 -0.476884
162.800000 -0.538550
162.850000 -0.634475
162.900000 -0.716696
162.950000 -0.723548
163.000000 -0.685863
163.050000 -0.651604
163.100000 -0.603642
163.150000 -0.559105
163.200000 -0.548827
163.250000 -0.586513
163.300000 -0.651604
163.350000 -0.723548
163.400000 -0.826324
163.450000 -0.942804
163.500000 -1.042156
163.550000 -1.117526
163.600000 -1.165488
163.650000 -1.172340
163.700000 -1.151784
163.750000 -1.120951
163.800000 -1.066137
163.850000 -0.980490
163.900000 -0.898269
163.950000 -0.809195
164.000000 -0.720122
164.050000 -0.672160
164.100000 -0.668733
164.150000 -0.651604
164.200000 -0.648179
164.250000 -0.682437
164.300000 -0.713270
164.350000 -0.709844
164.400000 -0.720122
164.450000 -0.744103
164.500000 -0.778362
164.550000 -0.819473
164.600000 -0.864009
164.650000 -0.918824
164.700000 -0.983915
164.750000 -1.025026
164.800000 -1.028452
164.850000 -1.021600
164.900000 -1.004471
164.950000 -0.939379
165.000000 -0.840028
165.050000 -0.771510
165.100000 -0.702992
165.150000 -0.613919
165.200000 -0.545401
165.250000 -0.528272
165.300000 -0.555679
165.350000 -0.620771
165.400000 -0.720122
165.450000 -0.843454
165.500000 -0.987341
165.550000 -1.138081
165.600000 -1.254561
165.650000 -1.333357
165.700000 -1.377893
165.750000 -1.367615
165.800000 -1.309375
165.850000 -1.247709
165.900000 -1.182617
165.950000 -1.093544
166.000000 -1.001045
166.050000 -0.942805
166.100000 -0.908546
166.150000 -0.894843
166.200000 -0.929101
166.250000 -1.007897
166.300000 -1.086692
166.350000 -1.172339
166.400000 -1.288819
166.450000 -1.425855
166.500000 -1.532058
166.550000 -1.586872
166.600000 -1.610853
166.650000 -1.617705
166.700000 -1.604001
166.750000 -1.542335
166.800000 -1.436133
166.850000 -1.309375
166.900000 -1.196321
166.950000 -1.086692
167.000000 -0.980490
167.050000 -0.908546
167.100000 -0.887991
167.150000 -0.901694
167.200000 -0.939379
167.250000 -1.007896
167.300000 -1.093544
167.350000 -1.182617
167.400000 -1.288819
167.450000 -1.412151
167.500000 -1.532058
167.550000 -1.634835
167.600000 -1.730759
167.650000 -1.789000
167.700000 -1.812981
167.750000 -1.809555
167.800000 -1.778721
167.850000 -1.703352
167.900000 -1.604002
167.950000 -1.504650
168.000000 -1.388170
168.050000 -1.257987
168.100000 -1.162062
168.150000 -1.086692
168.200000 -1.025026
168.250000 -1.004470
168.300000 -1.028452
168.350000 -1.042155
168.400000 -1.049008
168.450000 -1.076415
168.500000 -1.103821
168.550000 -1.117525
168.600000 -1.110673
168.650000 -1.086693
168.700000 -1.021600
168.750000 -0.932527
168.800000 -0.846880
168.850000 -0.771510
168.900000 -0.709844
168.950000 -0.661882
169.000000 -0.627623
169.050000 -0.641326
169.100000 -0.668734
169.150000 -0.672160
169.200000 -0.682438
169.250000 -0.754381
169.300000 -0.853732
169.350000 -0.935953
169.400000 -1.007897
169.450000 -1.090118
169.500000 -1.162062
169.550000 -1.210024
169.600000 -1.237432
169.650000 -1.275116
169.700000 -1.323078
169.750000 -1.336782
169.800000 -1.302523
169.850000 -1.257987
169.900000 -1.216876
169.950000 -1.162062
170.000000 -1.096970
170.050000 -1.052433
170.100000 -1.001045
170.150000 -0.929102
170.200000 -0.870861
170.250000 -0.860583
170.300000 -0.887991
170.350000 -0.939379
170.400000 -1.011323
170.450000 -1.090118
170.500000 -1.192895
170.550000 -1.319653
170.600000 -1.422429
170.650000 -1.514928
170.700000 -1.638260
170.750000 -1.754741
170.800000 -1.809555
170.850000 -1.830110
170.900000 -1.847239
170.950000 -1.809555
171.000000 -1.713630
171.050000 -1.607428
171.100000 -1.477244
171.150000 -1.319653
171.200000 -1.168913
171.250000 -1.059285
171.300000 -0.949657
171.350000 -0.857157
171.400000 -0.816046
171.450000 -0.802343
171.500000 -0.809195
171.550000 -0.850306
171.600000 -0.915397
171.650000 -0.977064
171.700000 -1.038730
171.750000 -1.086692
171.800000 -1.110674
171.850000 -1.110674
171.900000 -1.096969
171.950000 -1.066137
172.000000 -1.038729
172.050000 -1.021600
172.100000 -1.014749
172.150000 -1.004471
172.200000 -0.994193
172.250000 -0.990767
172.300000 -1.014749
172.350000 -1.055859
172.400000 -1.069563
172.450000 -1.069563
172.500000 -1.062710
172.550000 -1.025026
172.600000 -0.970212
172.650000 -0.922249
172.700000 -0.874287
172.750000 -0.822899
172.800000 -0.781788
172.850000 -0.764658
172.900000 -0.771510
172.950000 -0.809195
173.000000 -0.867435
173.050000 -0.935953
173.100000 -1.011322
173.150000 -1.096969
173.200000 -1.172339
173.250000 -1.220302
173.300000 -1.234005
173.350000 -1.220302
173.400000 -1.182617
173.450000 -1.114100
173.500000 -1.014749
173.550000 -0.881139
173.600000 -0.723548
173.650000 -0.562531
173.700000 -0.442625
173.750000 -0.367255
173.800000 -0.329570
173.850000 -0.346700
173.900000 -0.428922
173.950000 -0.548828
174.000000 -0.689289
174.050000 -0.877713
174.100000 -1.083266
174.150000 -1.244283
174.200000 -1.384744
174.250000 -1.525206
174.300000 -1.638260
174.350000 -1.682797
174.400000 -1.706778
174.450000 -1.710204
174.500000 -1.696500
174.550000 -1.679371
174.600000 -1.651964
174.650000 -1.593724
174.700000 -1.535484
174.750000 -1.511502
174.800000 -1.494373
174.850000 -1.494373
174.900000 -1.525206
174.950000 -1.552613
175.000000 -1.542335
175.050000 -1.549187
175.100000 -1.573169
175.150000 -1.559465
175.200000 -1.511503
175.250000 -1.487521
175.300000 -1.449836
175.350000 -1.347060
175.400000 -1.227154
175.450000 -1.124377
175.500000 -1.014748
175.550000 -0.911972
175.600000 -0.860584
175.650000 -0.836602
175.700000 -0.822899
175.750000 -0.843454
175.800000 -0.905120
175.850000 -0.983916
175.900000 -1.066137
175.950000 -1.144932
176.000000 -1.206598
176.050000 -1.244283
176.100000 -1.261412
176.150000 -1.244283
176.200000 -1.182617
176.250000 -1.110673
176.300000 -1.042155
176.350000 -0.959935
176.400000 -0.850306
176.450000 -0.771511
176.500000 -0.737251
176.550000 -0.709844
176.600000 -0.709845
176.650000 -0.768084
176.700000 -0.822898
176.750000 -0.857158
176.800000 -0.922250
176.850000 -1.014748
176.900000 -1.086693
176.950000 -1.141507
177.000000 -1.189469
177.050000 -1.230580
177.100000 -1.285394
177.150000 -1.336782
177.200000 -1.347060
177.250000 -1.333356
177.300000 -1.350486
177.350000 -1.343634
177.400000 -1.288819
177.450000 -1.237432
177.500000 -1.199747
177.550000 -1.090118
177.600000 -0.925676
177.650000 -0.781788
177.700000 -0.661882
177.750000 -0.511143
177.800000 -0.353551
177.850000 -0.254200
177.900000 -0.189109
177.950000 -0.127443
178.000000 -0.103461
178.050000 -0.130869
178.100000 -0.213090
178.150000 -0.343274
178.200000 -0.497439
178.250000 -0.655030
178.300000 -0.819472
178.350000 -0.980490
178.400000 -1.127803
178.450000 -1.261412
178.500000 -1.374467
178.550000 -1.436133
178.600000 -1.446411
178.650000 -1.446410
178.700000 -1.429281
178.750000 -1.353911
178.800000 -1.220302
178.850000 -1.090118
178.900000 -0.983916
178.950000 -0.860584
179.000000 -0.730399
179.050000 -0.624197
179.100000 -0.562531
179.150000 -0.511143
179.200000 -0.473458
179.250000 -0.466606
179.300000 -0.494013
179.350000 -0.535124
179.400000 -0.600215
179.450000 -0.696141
179.500000 -0.795491
179.550000 -0.857158
179.600000 -0.905120
179.650000 -0.949656
179.700000 -0.966786
179.750000 -0.946231
179.800000 -0.929102
179.850000 -0.929101
179.900000 -0.918823
179.950000 -0.860583
180.000000 -0.795491
180.050000 -0.774936
180.100000 -0.802343
180.150000 -0.836602
180.200000 -0.884565
180.250000 -0.994194
180.300000 -1.144933
180.350000 -1.278542
180.400000 -1.395022
180.450000 -1.497799
180.500000 -1.562890
180.550000 -1.566317
180.600000 -1.532058
180.650000 -1.456688
180.700000 -1.333356
180.750000 -1.162062
180.800000 -0.966786
180.850000 -0.771511
180.900000 -0.596790
180.950000 -0.463180
181.000000 -0.360403
181.050000 -0.288460
181.100000 -0.291886
181.150000 -0.353552
181.200000 -0.422069
181.250000 -0.514568
181.300000 -0.644753
181.350000 -0.750954
181.400000 -0.805769
181.450000 -0.860583
181.500000 -0.939379
181.550000 -0.977064
181.600000 -0.980490
181.650000 -0.994193
181.700000 -1.014748
181.750000 -1.014749
181.800000 -1.028452
181.850000 -1.055859
181.900000 -1.072988
181.950000 -1.090118
182.000000 -1.103822
182.050000 -1.107247
182.100000 -1.103822
182.150000 -1.096970
182.200000 -1.062711
182.250000 -1.021600
182.300000 -1.007897
182.350000 -0.997619
182.400000 -0.939379
182.450000 -0.881139
182.500000 -0.860583
182.550000 -0.822899
182.600000 -0.774937
182.650000 -0.771510
182.700000 -0.792065
182.750000 -0.788639
182.800000 -0.798917
182.850000 -0.833176
182.900000 -0.870861
182.950000 -0.932527
183.000000 -1.004471
183.050000 -1.042155
183.100000 -1.042155
183.150000 -1.062711
183.200000 -1.072988
183.250000 -1.038730
183.300000 -0.983916
183.350000 -0.915397
183.400000 -0.846880
183.450000 -0.812621
183.500000 -0.822899
183.550000 -0.836602
183.600000 -0.874287
183.650000 -0.970212
183.700000 -1.100396
183.750000 -1.210024
183.800000 -1.305949
183.850000 -1.412152
183.900000 -1.490947
183.950000 -1.514929
184.000000 -1.497799
184.050000 -1.460114
184.100000 -1.401874
184.150000 -1.312801
184.200000 -1.203172
184.250000 -1.120951
184.300000 -1.086692
184.350000 -1.069563
184.400000 -1.062711
184.450000 -1.100395
184.500000 -1.144932
184.550000 -1.168914
184.600000 -1.216876
184.650000 -1.312801
184.700000 -1.374467
184.750000 -1.391596
184.800000 -1.422430
184.850000 -1.470392
184.900000 -1.497799
184.950000 -1.508076
185.000000 -1.514928
185.050000 -1.497799
185.100000 -1.463541
185.150000 -1.419004
185.200000 -1.333356
185.250000 -1.220302
185.300000 -1.107248
185.350000 -0.990767
185.400000 -0.864009
185.450000 -0.754381
185.500000 -0.672159
185.550000 -0.613919
185.600000 -0.613919
185.650000 -0.682437
185.700000 -0.761233
185.750000 -0.840028
185.800000 -0.946231
185.850000 -1.069563
185.900000 -1.196321
185.950000 -1.326505
186.000000 -1.425855
186.050000 -1.490947
186.100000 -1.549188
186.150000 -1.580020
186.200000 -1.556039
186.250000 -1.542336
186.300000 -1.552613
186.350000 -1.528632
186.400000 -1.477244
186.450000 -1.463540
186.500000 -1.439559
186.550000 -1.384745
186.600000 -1.347060
186.650000 -1.312801
186.700000 -1.257987
186.750000 -1.213450
186.800000 -1.182617
186.850000 -1.127803
186.900000 -1.072988
186.950000 -1.055860
187.000000 -1.028452
187.050000 -0.994193
187.100000 -0.980490
187.150000 -0.973638
187.200000 -0.956508
187.250000 -0.977063
187.300000 -1.018174
187.350000 -1.021601
187.400000 -1.031878
187.450000 -1.086692
187.500000 -1.120951
187.550000 -1.110673
187.600000 -1.086692
187.650000 -1.083267
187.700000 -1.083266
187.750000 -1.083267
187.800000 -1.055859
187.850000 -1.021601
187.900000 -1.014748
187.950000 -1.014748
188.000000 -0.977064
188.050000 -0.956508
188.100000 -0.970212
188.150000 -0.956508
188.200000 -0.915398
188.250000 -0.918824
188.300000 -0.935953
188.350000 -0.911972
188.400000 -0.901694
188.450000 -0.932527
188.500000 -0.956509
188.550000 -0.977064
188.600000 -1.031878
188.650000 -1.093544
188.700000 -1.110674
188.750000 -1.114099
188.800000 -1.107247
188.850000 -1.086693
